Folder: stt-plotter/examples (part 5)

File: data_example_9_b.txt
WORKSHOP 3 EXPORTED DATA: [C:\Documents and Settings\Administrator\Pulpit\Rozciaganie\w6_2.W01 - 1]
*************************************************************************************************
Source of data: ScriptPl
WS3 File Version: 1,05
Number of bytes in subfile: 10107
Total number of data points: 480
Test date: 30-01-2018
Test time: 17:32:26
Player Step: 1
Step Capture No: 1
Actuator: 1
*************************************************************************************************
Actuator: 1  Channel:0	 Actuator: 1  Channel:1	 Actuator: 1  Channel:2	 Actuator: 1  Channel:3	 Actuator: 1  Channel:4
Load (kN)	 Stroke (mm)	 Extension (mm)	 Command (%)	 Time (s)
0,005	-62,572	-1,164	-48,086	0
0,036	-62,525	-1,160	-48,055	2
0,039	-62,495	-1,157	-48,026	4
0,041	-62,453	-1,153	-47,994	6
0,047	-62,419	-1,150	-47,964	8
0,046	-62,376	-1,147	-47,935	10
0,050	-62,340	-1,144	-47,904	12
0,056	-62,298	-1,141	-47,875	14
0,062	-62,256	-1,138	-47,845	16
0,065	-62,213	-1,135	-47,811	18
0,071	-62,176	-1,132	-47,779	20
0,068	-62,141	-1,130	-47,751	22
0,074	-62,100	-1,126	-47,718	24
0,074	-62,058	-1,123	-47,691	26
0,081	-62,016	-1,120	-47,656	28
0,085	-61,977	-1,117	-47,630	30
0,089	-61,939	-1,114	-47,595	32
0,091	-61,899	-1,111	-47,568	34
0,096	-61,858	-1,108	-47,537	36
0,107	-61,822	-1,105	-47,503	38
0,129	-61,778	-1,102	-47,468	40
0,165	-61,742	-1,099	-47,438	42
0,288	-61,699	-1,096	-47,408	44
0,557	-61,663	-1,093	-47,377	46
1,325	-61,622	-1,090	-47,349	48
2,249	-61,587	-1,087	-47,316	50
3,558	-61,549	-1,084	-47,283	52
5,088	-61,509	-1,081	-47,257	54
6,812	-61,475	-1,077	-47,225	56
8,645	-61,437	-1,075	-47,196	58
10,607	-61,399	-1,070	-47,163	60
12,701	-61,361	-1,066	-47,132	62
14,623	-61,328	-1,062	-47,102	64
16,669	-61,291	-1,059	-47,074	66
18,778	-61,250	-1,055	-47,043	68
20,818	-61,219	-1,050	-47,011	70
22,732	-61,178	-1,045	-46,978	72
24,725	-61,141	-1,040	-46,947	74
26,546	-61,104	-1,033	-46,920	76
28,376	-61,065	-1,026	-46,890	78
30,213	-61,029	-1,011	-46,856	80
31,869	-60,992	-0,998	-46,826	82
33,380	-60,953	-0,985	-46,793	84
35,177	-60,911	-0,968	-46,760	86
36,376	-60,875	-0,953	-46,734	88
37,663	-60,840	-0,934	-46,699	90
38,897	-60,800	-0,914	-46,673	92
39,958	-60,758	-0,890	-46,639	94
40,977	-60,721	-0,868	-46,609	96
41,871	-60,685	-0,844	-46,581	98
42,787	-60,644	-0,820	-46,549	100
43,465	-60,606	-0,791	-46,521	102
44,174	-60,568	-0,759	-46,486	104
44,758	-60,526	-0,729	-46,457	106
45,365	-60,486	-0,699	-46,425	108
45,858	-60,449	-0,667	-46,392	110
46,303	-60,408	-0,637	-46,366	112
46,776	-60,369	-0,605	-46,334	114
47,191	-60,326	-0,571	-46,303	116
47,592	-60,285	-0,540	-46,274	118
47,817	-60,248	-0,512	-46,241	120
48,255	-60,209	-0,477	-46,212	122
48,434	-60,171	-0,454	-46,177	124
48,836	-60,123	-0,425	-46,152	126
48,993	-60,090	-0,401	-46,116	128
49,404	-60,045	-0,373	-46,083	130
49,532	-60,006	-0,338	-46,055	132
49,877	-59,972	-0,294	-46,024	134
50,077	-59,934	-0,254	-45,995	136
50,247	-59,893	-0,221	-45,965	138
50,338	-59,846	-0,167	-45,933	140
50,569	-59,816	-0,138	-45,906	142
50,935	-59,766	-0,110	-45,871	144
51,045	-59,734	-0,083	-45,839	146
51,228	-59,689	-0,050	-45,816	148
51,455	-59,652	-0,011	-45,783	150
51,555	-59,616	0,031	-45,750	152
51,772	-59,573	0,065	-45,722	154
51,873	-59,536	0,101	-45,695	156
52,037	-59,495	0,134	-45,662	158
52,149	-59,454	0,172	-45,628	160
52,372	-59,414	0,207	-45,599	162
52,423	-59,371	0,247	-45,569	164
52,506	-59,333	0,264	-45,537	166
52,867	-59,282	0,283	-45,496	168
52,688	-59,249	0,312	-45,469	170
52,827	-59,217	0,333	-45,437	172
53,122	-59,183	0,356	-45,408	174
53,176	-59,135	0,385	-45,379	176
53,244	-59,099	0,422	-45,351	178
53,372	-59,062	0,497	-45,315	180
53,493	-59,014	0,539	-45,289	182
53,540	-58,978	0,583	-45,256	184
53,604	-58,939	0,618	-45,226	186
53,855	-58,897	0,654	-45,198	188
53,862	-58,851	0,700	-45,167	190
53,889	-58,808	0,739	-45,134	192
53,946	-58,770	0,774	-45,107	194
54,040	-58,736	0,817	-45,073	196
54,127	-58,703	0,861	-45,040	198
54,317	-58,665	0,887	-45,013	200
54,336	-58,615	0,910	-44,981	202
54,351	-58,576	0,931	-44,952	204
54,400	-58,536	0,958	-44,923	206
54,453	-58,497	0,989	-44,892	208
54,519	-58,467	1,024	-44,855	210
54,697	-58,422	1,102	-44,828	212
54,702	-58,374	1,179	-44,793	214
54,712	-58,334	1,239	-44,764	216
54,761	-58,295	1,287	-44,738	218
54,814	-58,253	1,338	-44,705	220
54,873	-58,221	1,378	-44,673	222
54,942	-58,186	1,426	-44,643	224
55,143	-58,142	1,501	-44,613	226
55,093	-58,087	1,563	-44,583	228
54,958	-58,045	1,632	-44,554	230
55,027	-58,011	1,667	-44,520	232
55,115	-57,978	1,690	-44,486	234
55,276	-57,943	1,725	-44,458	236
55,306	-57,902	1,763	-44,424	238
55,332	-57,860	1,832	-44,398	240
55,344	-57,812	1,905	-44,365	242
55,365	-57,770	1,972	-44,335	244
55,395	-57,727	2,011	-44,304	246
55,422	-57,682	2,072	-44,275	248
55,461	-57,651	2,117	-44,243	250
55,501	-57,606	2,149	-44,207	252
55,536	-57,570	2,191	-44,181	254
55,574	-57,531	2,261	-44,152	256
55,606	-57,491	2,851	-44,120	258
55,642	-57,448	3,979	-44,090	260
55,669	-57,406	4,024	-44,058	262
55,672	-57,361	4,068	-44,025	264
55,685	-57,322	4,109	-43,996	266
55,714	-57,281	1,772	-43,969	268
55,747	-57,242	0,773	-43,938	270
55,780	-57,204	0,569	-43,905	272
55,801	-57,162	0,569	-43,878	274
55,782	-57,121	0,570	-43,849	276
55,827	-57,087	0,557	-43,814	278
55,869	-57,048	0,555	-43,782	280
55,891	-57,006	0,555	-43,754	282
55,920	-56,968	0,555	-43,723	284
55,898	-56,918	0,555	-43,692	286
55,844	-56,880	0,555	-43,662	288
55,905	-56,847	0,555	-43,631	290
55,948	-56,809	0,555	-43,604	292
55,990	-56,771	0,555	-43,565	294
56,018	-56,728	0,555	-43,533	296
56,032	-56,683	0,556	-43,504	298
55,878	-56,640	0,555	-43,471	300
55,936	-56,612	0,555	-43,443	302
56,000	-56,571	0,555	-43,414	304
56,055	-56,538	0,555	-43,377	306
56,082	-56,499	0,555	-43,354	308
56,112	-56,448	0,556	-43,322	310
56,104	-56,401	0,556	-43,289	312
55,859	-56,366	0,556	-43,259	314
55,957	-56,334	0,555	-43,228	316
56,060	-56,308	0,556	-43,201	318
56,175	-56,264	0,556	-43,167	320
56,170	-56,214	0,556	-43,138	322
56,135	-56,165	0,555	-43,105	324
55,940	-56,114	0,555	-43,077	326
55,969	-56,084	0,555	-43,045	328
56,035	-56,058	0,556	-43,013	330
56,101	-56,017	0,556	-42,985	332
56,134	-55,976	0,555	-42,955	334
56,156	-55,934	0,556	-42,924	336
56,148	-55,883	0,556	-42,891	338
56,098	-55,838	0,556	-42,860	340
55,909	-55,806	0,555	-42,828	342
55,986	-55,774	0,556	-42,798	344
56,072	-55,743	0,555	-42,768	346
56,159	-55,700	0,556	-42,740	348
56,139	-55,655	0,556	-42,709	350
56,085	-55,607	0,556	-42,678	352
55,977	-55,554	0,556	-42,647	354
55,771	-55,528	0,556	-42,614	356
55,911	-55,505	0,555	-42,586	358
56,129	-55,459	0,556	-42,552	360
56,066	-55,409	0,556	-42,520	362
55,958	-55,353	0,555	-42,486	364
55,738	-55,313	0,556	-42,460	366
55,796	-55,285	0,556	-42,432	368
55,861	-55,251	0,556	-42,400	370
55,879	-55,221	0,555	-42,373	372
55,898	-55,180	0,556	-42,339	374
55,881	-55,130	0,556	-42,306	376
55,823	-55,082	0,556	-42,278	378
55,576	-55,035	0,556	-42,242	380
55,474	-55,007	0,556	-42,213	382
55,580	-54,979	0,555	-42,181	384
55,740	-54,943	0,555	-42,152	386
55,718	-54,892	0,556	-42,119	388
55,565	-54,836	0,555	-42,091	390
55,122	-54,796	0,556	-42,060	392
55,239	-54,772	0,556	-42,028	394
55,433	-54,743	0,556	-41,997	396
55,489	-54,693	0,556	-41,970	398
55,287	-54,631	0,556	-41,938	400
55,024	-54,595	0,556	-41,904	402
55,053	-54,556	0,556	-41,883	404
55,050	-54,512	0,555	-41,844	406
54,972	-54,468	0,556	-41,817	408
54,780	-54,433	0,556	-41,788	410
54,811	-54,404	0,555	-41,753	412
54,797	-54,362	0,556	-41,724	414
54,717	-54,313	0,556	-41,698	416
54,249	-54,282	0,556	-41,664	418
54,388	-54,258	0,556	-41,636	420
54,598	-54,218	0,556	-41,596	422
54,401	-54,163	0,556	-41,564	424
53,827	-54,113	0,556	-41,536	426
53,912	-54,077	0,556	-41,504	428
53,930	-54,048	0,556	-41,476	430
53,920	-54,010	0,556	-41,445	432
53,847	-53,959	0,556	-41,416	434
53,032	-53,929	0,556	-41,388	436
53,534	-53,897	0,556	-41,355	438
53,509	-53,850	0,556	-41,322	440
53,198	-53,789	0,556	-41,293	442
52,828	-53,757	0,556	-41,262	444
52,860	-53,722	0,556	-41,233	446
52,843	-53,686	0,556	-41,202	448
52,659	-53,630	0,556	-41,173	450
52,083	-53,612	0,556	-41,140	452
52,504	-53,577	0,555	-41,113	454
52,214	-53,511	0,556	-41,080	456
51,421	-53,489	0,556	-41,048	458
51,947	-53,459	0,556	-41,018	460
51,671	-53,393	0,555	-40,988	462
51,041	-53,359	0,556	-40,953	464
51,132	-53,320	0,556	-40,921	466
51,097	-53,285	0,556	-40,894	468
50,187	-53,241	0,556	-40,861	470
50,359	-53,211	0,556	-40,832	472
50,545	-53,167	0,556	-40,799	474
0,008	-53,070	0,562	-40,769	476
0,006	-53,030	0,562	-40,743	478
0,006	-53,011	0,562	-40,726	479

File: data_example_10_b.txt
WORKSHOP 3 EXPORTED DATA: [C:\Documents and Settings\Administrator\Pulpit\Rozciaganie\w7_1.W01 - 1]
*************************************************************************************************
Source of data: ScriptPl
WS3 File Version: 1,05
Number of bytes in subfile: 6647
Total number of data points: 307
Test date: 30-01-2018
Test time: 17:45:29
Player Step: 1
Step Capture No: 1
Actuator: 1
*************************************************************************************************
Actuator: 1  Channel:0	 Actuator: 1  Channel:1	 Actuator: 1  Channel:2	 Actuator: 1  Channel:3	 Actuator: 1  Channel:4
Load (kN)	 Stroke (mm)	 Extension (mm)	 Command (%)	 Time (s)
1,022	-60,318	0,007	-46,350	0
2,008	-60,278	0,038	-46,322	2
3,196	-60,240	0,061	-46,289	4
4,537	-60,203	0,092	-46,261	6
5,977	-60,166	0,120	-46,229	8
7,663	-60,129	0,153	-46,197	10
9,385	-60,090	0,189	-46,167	12
11,571	-60,053	0,220	-46,137	14
13,488	-60,020	0,250	-46,106	16
15,513	-59,981	0,279	-46,074	18
17,678	-59,946	0,307	-46,046	20
19,738	-59,908	0,338	-46,011	22
21,791	-59,868	0,370	-45,986	24
23,833	-59,832	0,403	-45,952	26
25,737	-59,795	0,440	-45,922	28
27,681	-59,758	0,467	-45,891	30
29,587	-59,721	0,500	-45,860	32
31,378	-59,686	0,532	-45,831	34
33,256	-59,647	0,564	-45,798	36
35,001	-59,606	0,596	-45,769	38
36,638	-59,573	0,632	-45,744	40
38,375	-59,531	0,672	-45,710	42
39,930	-59,494	0,708	-45,680	44
41,437	-59,458	0,745	-45,647	46
42,964	-59,420	0,785	-45,618	48
44,251	-59,385	0,827	-45,584	50
45,630	-59,348	0,869	-45,553	52
46,866	-59,305	0,912	-45,520	54
48,059	-59,265	0,954	-45,488	56
49,127	-59,228	0,991	-45,456	58
50,117	-59,192	1,032	-45,424	60
51,055	-59,150	1,082	-45,397	62
51,988	-59,113	1,130	-45,367	64
52,793	-59,070	1,174	-45,335	66
53,595	-59,030	1,213	-45,310	68
54,176	-58,994	1,252	-45,274	70
54,795	-58,953	1,292	-45,247	72
55,346	-58,916	1,330	-45,213	74
55,988	-58,874	1,368	-45,186	76
56,352	-58,841	1,407	-45,156	78
56,794	-58,795	1,444	-45,121	80
57,251	-58,759	1,482	-45,096	82
57,566	-58,719	1,514	-45,064	84
57,883	-58,680	1,545	-45,034	86
58,207	-58,638	1,582	-45,003	88
58,571	-58,599	1,618	-44,969	90
58,822	-58,559	1,657	-44,938	92
59,085	-58,519	1,692	-44,908	94
59,386	-58,478	1,729	-44,874	96
59,478	-58,439	1,770	-44,845	98
59,744	-58,402	1,814	-44,816	100
59,931	-58,362	1,859	-44,786	102
60,123	-58,323	1,905	-44,749	104
60,278	-58,278	1,952	-44,728	106
60,416	-58,242	1,989	-44,692	108
60,648	-58,202	2,026	-44,661	110
60,712	-58,165	2,063	-44,640	112
60,856	-58,122	2,100	-44,595	114
61,010	-58,087	2,137	-44,571	116
61,126	-58,041	2,176	-44,541	118
61,216	-58,003	2,213	-44,508	120
61,361	-57,960	2,253	-44,475	122
61,422	-57,925	2,292	-44,442	124
61,552	-57,883	2,330	-44,415	126
61,680	-57,847	2,369	-44,386	128
61,698	-57,799	2,410	-44,352	130
61,762	-57,767	2,446	-44,324	132
61,858	-57,725	2,480	-44,295	134
61,958	-57,684	2,518	-44,258	136
61,999	-57,646	2,555	-44,234	138
62,049	-57,606	2,593	-44,201	140
62,109	-57,560	2,630	-44,169	142
62,175	-57,527	2,667	-44,138	144
62,222	-57,485	2,705	-44,108	146
62,265	-57,448	2,743	-44,076	148
62,308	-57,407	2,779	-44,048	150
62,340	-57,366	2,818	-44,017	152
62,377	-57,322	2,992	-43,986	154
62,404	-57,286	3,402	-43,955	156
62,430	-57,241	3,444	-43,923	158
62,441	-57,204	3,484	-43,896	160
62,477	-57,161	3,525	-43,862	162
62,419	-57,123	2,337	-43,835	164
62,486	-57,084	1,187	-43,803	166
62,517	-57,042	1,184	-43,773	168
62,515	-56,999	1,167	-43,743	170
62,507	-56,966	1,166	-43,714	172
62,533	-56,919	1,166	-43,682	174
62,429	-56,876	1,166	-43,651	176
62,443	-56,844	1,166	-43,618	178
62,461	-56,800	1,166	-43,587	180
62,391	-56,758	1,166	-43,554	182
62,385	-56,722	1,166	-43,522	184
62,343	-56,686	1,167	-43,493	186
62,400	-56,644	1,166	-43,460	188
62,235	-56,595	1,166	-43,430	190
62,244	-56,560	1,166	-43,401	192
62,119	-56,518	1,167	-43,373	194
62,173	-56,485	1,167	-43,338	196
62,191	-56,445	1,167	-43,309	198
61,994	-56,403	1,166	-43,280	200
62,048	-56,365	1,167	-43,247	202
61,943	-56,316	1,166	-43,220	204
61,911	-56,283	1,166	-43,186	206
61,799	-56,235	1,166	-43,157	208
61,792	-56,199	1,167	-43,127	210
61,658	-56,158	1,166	-43,095	212
61,677	-56,120	1,167	-43,066	214
61,522	-56,081	1,167	-43,035	216
61,550	-56,035	1,167	-43,004	218
61,430	-55,995	1,166	-42,972	220
61,301	-55,956	1,167	-42,944	222
61,324	-55,919	1,167	-42,910	224
61,076	-55,877	1,166	-42,882	226
61,155	-55,841	1,167	-42,850	228
61,055	-55,795	1,166	-42,816	230
60,883	-55,757	1,167	-42,794	232
60,822	-55,717	1,166	-42,756	234
60,686	-55,676	1,167	-42,728	236
60,533	-55,633	1,167	-42,697	238
60,500	-55,594	1,166	-42,662	240
60,320	-55,559	1,167	-42,634	242
60,311	-55,514	1,166	-42,596	244
60,024	-55,474	1,167	-42,572	246
60,020	-55,432	1,166	-42,542	248
59,794	-55,398	1,166	-42,513	250
59,805	-55,355	1,166	-42,479	252
59,492	-55,317	1,167	-42,454	254
59,492	-55,275	1,166	-42,417	256
59,241	-55,235	1,167	-42,388	258
59,118	-55,194	1,166	-42,356	260
58,924	-55,150	1,167	-42,325	262
58,736	-55,111	1,167	-42,294	264
58,580	-55,072	1,167	-42,267	266
58,324	-55,034	1,167	-42,231	268
58,248	-54,994	1,167	-42,200	270
58,054	-54,950	1,167	-42,173	272
57,850	-54,917	1,167	-42,137	274
57,563	-54,872	1,167	-42,110	276
57,509	-54,831	1,167	-42,080	278
57,204	-54,794	1,167	-42,047	280
56,943	-54,751	1,167	-42,019	282
56,657	-54,715	1,167	-41,988	284
56,595	-54,673	1,166	-41,959	286
56,253	-54,634	1,167	-41,926	288
56,021	-54,593	1,167	-41,897	290
55,740	-54,553	1,167	-41,865	292
55,487	-54,514	1,167	-41,839	294
55,114	-54,467	1,167	-41,805	296
54,842	-54,429	1,167	-41,773	298
54,487	-54,391	1,167	-41,746	300
-0,001	-54,287	1,171	-41,714	302
-0,003	-54,246	1,171	-41,683	304
0,002	-54,208	1,170	-41,652	306

File: data_example_11.txt
WORKSHOP 3 EXPORTED DATA: [C:\Documents and Settings\Administrator\Pulpit\Rozciaganie\w7_2.W01 - 1]
*************************************************************************************************
Source of data: ScriptPl
WS3 File Version: 1,05
Number of bytes in subfile: 7527
Total number of data points: 351
Test date: 30-01-2018
Test time: 18:10:40
Player Step: 1
Step Capture No: 1
Actuator: 1
*************************************************************************************************
Actuator: 1  Channel:0	 Actuator: 1  Channel:1	 Actuator: 1  Channel:2	 Actuator: 1  Channel:3	 Actuator: 1  Channel:4
Load (kN)	 Stroke (mm)	 Extension (mm)	 Command (%)	 Time (s)
0,676	 -60,492	 0,000	 -46,486	 0,000
1,752	 -60,447	 0,003	 -46,456	 2,000
2,628	 -60,418	 0,006	 -46,426	 4,000
3,790	 -60,380	 0,010	 -46,396	 6,000
5,144	 -60,339	 0,016	 -46,365	 8,000
6,485	 -60,303	 0,022	 -46,331	 10,000
7,956	 -60,265	 0,029	 -46,301	 12,000
9,660	 -60,222	 0,037	 -46,273	 14,000
11,408	 -60,191	 0,045	 -46,240	 16,000
13,250	 -60,147	 0,054	 -46,209	 18,000
15,328	 -60,109	 0,064	 -46,179	 20,000
17,345	 -60,073	 0,073	 -46,147	 22,000
19,314	 -60,038	 0,083	 -46,119	 24,000
21,396	 -60,000	 0,094	 -46,090	 26,000
23,404	 -59,964	 0,105	 -46,056	 28,000
25,430	 -59,928	 0,116	 -46,023	 30,000
27,427	 -59,888	 0,127	 -45,995	 32,000
29,411	 -59,850	 0,140	 -45,959	 34,000
31,290	 -59,812	 0,152	 -45,936	 36,000
33,306	 -59,774	 0,166	 -45,904	 38,000
35,072	 -59,742	 0,179	 -45,875	 40,000
36,909	 -59,703	 0,194	 -45,841	 42,000
38,639	 -59,664	 0,209	 -45,811	 44,000
40,376	 -59,627	 0,225	 -45,783	 46,000
41,979	 -59,590	 0,242	 -45,752	 48,000
43,635	 -59,552	 0,260	 -45,720	 50,000
45,131	 -59,515	 0,278	 -45,695	 52,000
46,590	 -59,474	 0,298	 -45,662	 54,000
48,062	 -59,437	 0,317	 -45,632	 56,000
49,541	 -59,397	 0,341	 -45,600	 58,000
50,652	 -59,357	 0,363	 -45,568	 60,000
51,866	 -59,319	 0,388	 -45,535	 62,000
52,950	 -59,281	 0,412	 -45,501	 64,000
53,932	 -59,238	 0,437	 -45,467	 66,000
54,921	 -59,201	 0,465	 -45,440	 68,000
55,703	 -59,163	 0,490	 -45,408	 70,000
56,435	 -59,128	 0,519	 -45,378	 72,000
57,172	 -59,087	 0,548	 -45,348	 74,000
57,784	 -59,049	 0,577	 -45,315	 76,000
58,404	 -59,010	 0,607	 -45,285	 78,000
58,951	 -58,968	 0,638	 -45,258	 80,000
59,468	 -58,928	 0,671	 -45,226	 82,000
59,931	 -58,894	 0,702	 -45,200	 84,000
60,355	 -58,853	 0,737	 -45,169	 86,000
60,748	 -58,819	 0,769	 -45,137	 88,000
61,114	 -58,777	 0,804	 -45,101	 90,000
61,504	 -58,736	 0,838	 -45,072	 92,000
61,786	 -58,693	 0,872	 -45,044	 94,000
62,062	 -58,657	 0,908	 -45,013	 96,000
62,375	 -58,622	 0,943	 -44,985	 98,000
62,629	 -58,578	 0,979	 -44,952	 100,000
62,864	 -58,538	 1,015	 -44,919	 102,000
63,096	 -58,500	 1,052	 -44,888	 104,000
63,296	 -58,456	 1,088	 -44,858	 106,000
63,574	 -58,418	 1,126	 -44,830	 108,000
63,651	 -58,377	 1,164	 -44,796	 110,000
63,899	 -58,341	 1,200	 -44,767	 112,000
64,062	 -58,301	 1,239	 -44,736	 114,000
64,153	 -58,262	 1,276	 -44,705	 116,000
64,357	 -58,220	 1,313	 -44,674	 118,000
64,453	 -58,181	 1,351	 -44,642	 120,000
64,602	 -58,142	 1,389	 -44,614	 122,000
64,690	 -58,101	 1,427	 -44,585	 124,000
64,846	 -58,063	 1,468	 -44,554	 126,000
64,891	 -58,020	 1,507	 -44,519	 128,000
65,035	 -57,981	 1,543	 -44,486	 130,000
65,121	 -57,940	 1,583	 -44,457	 132,000
65,191	 -57,902	 1,621	 -44,431	 134,000
65,347	 -57,862	 1,660	 -44,400	 136,000
65,380	 -57,820	 1,703	 -44,366	 138,000
65,423	 -57,778	 0,741	 -44,332	 140,000
65,551	 -57,744	 0,089	 -44,304	 142,000
65,575	 -57,700	 0,089	 -44,275	 144,000
65,639	 -57,658	 0,086	 -44,241	 146,000
65,715	 -57,621	 0,085	 -44,212	 148,000
65,765	 -57,578	 0,085	 -44,181	 150,000
65,802	 -57,538	 0,085	 -44,150	 152,000
65,955	 -57,502	 0,085	 -44,121	 154,000
65,896	 -57,463	 0,084	 -44,087	 156,000
65,952	 -57,418	 0,084	 -44,057	 158,000
65,989	 -57,379	 0,072	 -44,027	 160,000
65,987	 -57,338	 0,070	 -43,997	 162,000
66,036	 -57,304	 0,070	 -43,968	 164,000
66,077	 -57,263	 0,071	 -43,938	 166,000
66,124	 -57,219	 0,070	 -43,908	 168,000
66,155	 -57,176	 0,070	 -43,874	 170,000
66,139	 -57,139	 0,070	 -43,846	 172,000
66,145	 -57,097	 0,070	 -43,813	 174,000
66,178	 -57,059	 0,070	 -43,785	 176,000
66,168	 -57,020	 0,070	 -43,752	 178,000
66,210	 -56,982	 0,070	 -43,723	 180,000
66,221	 -56,939	 0,070	 -43,697	 182,000
66,176	 -56,898	 0,070	 -43,662	 184,000
66,220	 -56,854	 0,070	 -43,632	 186,000
66,217	 -56,816	 0,070	 -43,600	 188,000
66,171	 -56,781	 0,070	 -43,561	 190,000
66,194	 -56,736	 0,070	 -43,533	 192,000
66,157	 -56,694	 0,070	 -43,503	 194,000
66,151	 -56,653	 0,070	 -43,471	 196,000
66,118	 -56,617	 0,070	 -43,442	 198,000
66,103	 -56,574	 0,070	 -43,410	 200,000
66,114	 -56,539	 0,070	 -43,381	 202,000
65,970	 -56,496	 0,070	 -43,350	 204,000
66,056	 -56,457	 0,070	 -43,320	 206,000
65,890	 -56,418	 0,070	 -43,290	 208,000
65,995	 -56,382	 0,070	 -43,260	 210,000
65,976	 -56,334	 0,070	 -43,228	 212,000
65,824	 -56,297	 0,070	 -43,201	 214,000
65,852	 -56,256	 0,070	 -43,169	 216,000
65,749	 -56,214	 0,070	 -43,138	 218,000
65,774	 -56,176	 0,070	 -43,107	 220,000
65,698	 -56,133	 0,070	 -43,076	 222,000
65,626	 -56,094	 0,070	 -43,044	 224,000
65,623	 -56,053	 0,070	 -43,015	 226,000
65,563	 -56,010	 0,070	 -42,985	 228,000
65,480	 -55,969	 0,069	 -42,947	 230,000
65,412	 -55,931	 0,070	 -42,923	 232,000
65,370	 -55,895	 0,070	 -42,893	 234,000
65,189	 -55,853	 0,070	 -42,859	 236,000
65,323	 -55,815	 0,070	 -42,833	 238,000
64,909	 -55,778	 0,070	 -42,798	 240,000
65,178	 -55,738	 0,070	 -42,766	 242,000
64,940	 -55,693	 0,070	 -42,739	 244,000
64,933	 -55,652	 0,070	 -42,710	 246,000
64,832	 -55,610	 0,070	 -42,677	 248,000
64,852	 -55,568	 0,070	 -42,648	 250,000
64,632	 -55,537	 0,070	 -42,619	 252,000
64,589	 -55,489	 0,070	 -42,584	 254,000
64,531	 -55,447	 0,070	 -42,554	 256,000
64,392	 -55,412	 0,070	 -42,522	 258,000
64,345	 -55,369	 0,070	 -42,487	 260,000
64,231	 -55,331	 0,070	 -42,459	 262,000
64,181	 -55,287	 0,070	 -42,430	 264,000
63,978	 -55,247	 0,070	 -42,399	 266,000
63,867	 -55,207	 0,070	 -42,370	 268,000
63,810	 -55,172	 0,070	 -42,340	 270,000
63,554	 -55,126	 0,070	 -42,309	 272,000
63,577	 -55,089	 0,070	 -42,274	 274,000
63,427	 -55,045	 0,070	 -42,246	 276,000
63,267	 -55,004	 0,070	 -42,213	 278,000
63,133	 -54,970	 0,070	 -42,183	 280,000
63,090	 -54,922	 0,070	 -42,154	 282,000
62,849	 -54,882	 0,070	 -42,122	 284,000
62,722	 -54,845	 0,070	 -42,093	 286,000
62,556	 -54,804	 0,070	 -42,064	 288,000
62,418	 -54,764	 0,070	 -42,031	 290,000
62,260	 -54,725	 0,070	 -42,001	 292,000
62,070	 -54,685	 0,070	 -41,969	 294,000
61,920	 -54,648	 0,069	 -41,941	 296,000
61,691	 -54,609	 0,070	 -41,909	 298,000
61,628	 -54,562	 0,070	 -41,878	 300,000
61,298	 -54,522	 0,070	 -41,846	 302,000
61,165	 -54,481	 0,070	 -41,819	 304,000
60,901	 -54,441	 0,070	 -41,787	 306,000
60,828	 -54,400	 0,070	 -41,755	 308,000
60,589	 -54,361	 0,070	 -41,729	 310,000
60,322	 -54,326	 0,070	 -41,697	 312,000
60,014	 -54,281	 0,070	 -41,664	 314,000
59,889	 -54,238	 0,070	 -41,629	 316,000
59,660	 -54,197	 0,070	 -41,597	 318,000
59,319	 -54,162	 0,070	 -41,565	 320,000
59,240	 -54,116	 0,069	 -41,536	 322,000
58,747	 -54,080	 0,070	 -41,505	 324,000
58,626	 -54,037	 0,070	 -41,477	 326,000
58,283	 -53,996	 0,070	 -41,445	 328,000
57,995	 -53,955	 0,070	 -41,416	 330,000
57,792	 -53,917	 0,070	 -41,385	 332,000
57,389	 -53,877	 0,070	 -41,355	 334,000
56,978	 -53,832	 0,070	 -41,322	 336,000
56,830	 -53,789	 0,070	 -41,293	 338,000
56,427	 -53,750	 0,070	 -41,267	 340,000
56,145	 -53,715	 0,070	 -41,233	 342,000
0,012	 -53,610	 0,073	 -41,201	 344,000
-0,003	 -53,579	 0,072	 -41,172	 346,000
0,001	 -53,536	 0,072	 -41,141	 348,000
0,001	 -53,496	 0,072	 -41,111	 350,000