Folder: stt-plotter/examples

File: data_example.txt
WORKSHOP 3 EXPORTED DATA: [C:\wyniki\2012_03_26\Kopia 26_03.W01 - 1]
*************************************************************************************************
Source of data: ScriptPl
WS3 File Version: 1,05
Number of bytes in subfile: 89187
Total number of data points: 4434
Test date: 26-03-2012
Test time: 15:38:44
Player Step: 1
Step Capture No: 1
Actuator: 1
*************************************************************************************************
Actuator: 1  Channel:0	 Actuator: 1  Channel:1	 Actuator: 1  Channel:2	 Actuator: 1  Channel:3	 Actuator: 1  Channel:4
Load (kN)	 Stroke (mm)	 Extension (mm)	 Command (%)	 Time (s)
-0,006	 -62,865	 -0,113	 -48,310	 0,000
-0,006	 -62,690	 -0,112	 -48,166	 1,900
-0,006	 -62,498	 -0,112	 -48,022	 3,800
-0,006	 -62,307	 -0,112	 -47,874	 5,700
-0,006	 -62,118	 -0,112	 -47,728	 7,600
-0,006	 -61,927	 -0,112	 -47,586	 9,500
-0,006	 -61,740	 -0,113	 -47,435	 11,400
-0,006	 -61,547	 -0,113	 -47,288	 13,300
-0,006	 -61,359	 -0,112	 -47,142	 15,200
-0,006	 -61,175	 -0,113	 -47,001	 17,100
-0,006	 -60,981	 -0,113	 -46,854	 19,000
-0,005	 -60,791	 -0,113	 -46,705	 20,900
-0,006	 -60,604	 -0,113	 -46,563	 22,800
-0,006	 -60,414	 -0,112	 -46,409	 24,700
-0,006	 -60,220	 -0,112	 -46,267	 26,600
-0,006	 -60,034	 -0,113	 -46,120	 28,500
-0,006	 -59,841	 -0,112	 -45,974	 30,400
-0,006	 -59,651	 -0,113	 -45,831	 32,300
-0,006	 -59,463	 -0,113	 -45,684	 34,200
-0,006	 -59,274	 -0,113	 -45,543	 36,100
-0,006	 -59,084	 -0,113	 -45,386	 38,000
-0,006	 -58,893	 -0,113	 -45,244	 39,900
-0,006	 -58,702	 -0,113	 -45,101	 41,800
-0,006	 -58,520	 -0,113	 -44,956	 43,700
-0,006	 -58,322	 -0,112	 -44,806	 45,600
-0,005	 -58,132	 -0,113	 -44,664	 47,500
-0,003	 -57,940	 -0,113	 -44,515	 49,400
0,011	 -57,753	 -0,112	 -44,371	 51,300
0,319	 -57,564	 -0,113	 -44,225	 53,200
0,769	 -57,371	 -0,112	 -44,079	 55,100
0,891	 -57,184	 -0,113	 -43,935	 57,000
0,966	 -56,996	 -0,113	 -43,787	 58,900
1,020	 -56,806	 -0,113	 -43,641	 60,800
1,061	 -56,616	 -0,113	 -43,487	 62,700
1,100	 -56,429	 -0,113	 -43,344	 64,600
1,131	 -56,234	 -0,113	 -43,199	 66,500
1,159	 -56,046	 -0,113	 -43,056	 68,400
1,186	 -55,854	 -0,112	 -42,910	 70,300
1,211	 -55,663	 -0,113	 -42,766	 72,200
1,232	 -55,477	 -0,113	 -42,623	 74,100
1,252	 -55,290	 -0,113	 -42,470	 76,000
1,269	 -55,098	 -0,112	 -42,327	 77,900
1,287	 -54,906	 -0,113	 -42,177	 79,800
1,299	 -54,715	 -0,113	 -42,033	 81,700
1,319	 -54,524	 -0,113	 -41,888	 83,600
1,335	 -54,340	 -0,112	 -41,744	 85,500
1,347	 -54,145	 -0,112	 -41,593	 87,400
1,359	 -53,953	 -0,113	 -41,448	 89,300
1,372	 -53,768	 -0,112	 -41,302	 91,200
1,383	 -53,573	 -0,112	 -41,157	 93,100
1,392	 -53,386	 -0,113	 -41,013	 95,000
1,399	 -53,195	 -0,112	 -40,865	 96,900
1,404	 -53,005	 -0,113	 -40,719	 98,800
1,406	 -52,815	 -0,112	 -40,570	 100,700
1,404	 -52,625	 -0,112	 -40,431	 102,600
1,390	 -52,427	 -0,113	 -40,282	 104,500
1,369	 -52,247	 -0,113	 -40,132	 106,400
1,335	 -52,058	 -0,112	 -39,987	 108,300
1,296	 -51,866	 -0,112	 -39,845	 110,200
1,261	 -51,671	 -0,112	 -39,702	 112,100
1,234	 -51,485	 -0,112	 -39,545	 114,000
1,228	 -51,293	 -0,113	 -39,397	 115,900
1,225	 -51,103	 -0,113	 -39,258	 117,800
1,230	 -50,915	 -0,112	 -39,111	 119,700
1,237	 -50,726	 -0,112	 -38,970	 121,600
1,246	 -50,531	 -0,112	 -38,817	 123,500
1,257	 -50,344	 -0,113	 -38,672	 125,400
1,266	 -50,155	 -0,112	 -38,526	 127,300
1,276	 -49,965	 -0,112	 -38,380	 129,200
1,285	 -49,775	 -0,113	 -38,234	 131,100
1,293	 -49,585	 -0,113	 -38,089	 133,000
1,303	 -49,396	 -0,113	 -37,946	 134,900
1,309	 -49,208	 -0,113	 -37,800	 136,800
1,317	 -49,014	 -0,113	 -37,649	 138,700
1,324	 -48,828	 -0,113	 -37,504	 140,600
1,330	 -48,636	 -0,113	 -37,360	 142,500
1,336	 -48,448	 -0,113	 -37,216	 144,400
1,340	 -48,259	 -0,113	 -37,069	 146,300
1,344	 -48,068	 -0,112	 -36,920	 148,200
1,347	 -47,878	 -0,113	 -36,776	 150,100
1,347	 -47,690	 -0,113	 -36,628	 152,000
1,345	 -47,495	 -0,113	 -36,483	 153,900
1,343	 -47,305	 -0,113	 -36,337	 155,800
1,335	 -47,115	 -0,113	 -36,188	 157,700
1,325	 -46,925	 -0,113	 -36,046	 159,600
1,311	 -46,735	 -0,113	 -35,902	 161,500
1,288	 -46,545	 -0,112	 -35,758	 163,400
1,264	 -46,357	 -0,113	 -35,605	 165,300
1,236	 -46,166	 -0,113	 -35,460	 167,200
1,211	 -45,971	 -0,112	 -35,316	 169,100
1,192	 -45,785	 -0,112	 -35,172	 171,000
1,178	 -45,594	 -0,113	 -35,022	 172,900
1,170	 -45,404	 -0,112	 -34,876	 174,800
1,167	 -45,216	 -0,112	 -34,730	 176,700
1,165	 -45,023	 -0,112	 -34,586	 178,600
1,164	 -44,838	 -0,112	 -34,442	 180,500
1,162	 -44,644	 -0,113	 -34,293	 182,400
1,162	 -44,455	 -0,113	 -34,148	 184,300
1,164	 -44,264	 -0,112	 -34,002	 186,200
1,162	 -44,071	 -0,113	 -33,858	 188,100
1,162	 -43,886	 -0,113	 -33,705	 190,000
1,162	 -43,696	 -0,113	 -33,561	 191,900
1,162	 -43,505	 -0,113	 -33,416	 193,800
1,161	 -43,315	 -0,112	 -33,271	 195,700
1,159	 -43,125	 -0,113	 -33,129	 197,600
1,157	 -42,935	 -0,113	 -32,978	 199,500
1,153	 -42,743	 -0,112	 -32,834	 201,400
1,149	 -42,555	 -0,112	 -32,687	 203,300
1,143	 -42,363	 -0,112	 -32,541	 205,200
1,137	 -42,177	 -0,113	 -32,394	 207,100
1,129	 -41,991	 -0,113	 -32,250	 209,000
1,120	 -41,797	 -0,113	 -32,105	 210,900
1,113	 -41,607	 -0,113	 -31,962	 212,800
1,105	 -41,416	 -0,112	 -31,812	 214,700
1,098	 -41,224	 -0,113	 -31,663	 216,600
1,092	 -41,032	 -0,113	 -31,517	 218,500
1,087	 -40,846	 -0,113	 -31,374	 220,400
1,083	 -40,654	 -0,113	 -31,231	 222,300
1,078	 -40,461	 -0,113	 -31,080	 224,200
1,075	 -40,272	 -0,113	 -30,937	 226,100
1,069	 -40,085	 -0,112	 -30,788	 228,000
1,065	 -39,895	 -0,113	 -30,644	 229,900
1,060	 -39,701	 -0,113	 -30,497	 231,800
1,056	 -39,513	 -0,112	 -30,346	 233,700
1,050	 -39,322	 -0,113	 -30,204	 235,600
1,043	 -39,131	 -0,112	 -30,059	 237,500
1,038	 -38,943	 -0,113	 -29,914	 239,400
1,032	 -38,750	 -0,113	 -29,763	 241,300
1,026	 -38,561	 -0,113	 -29,618	 243,200
1,017	 -38,372	 -0,113	 -29,475	 245,100
1,009	 -38,184	 -0,113	 -29,328	 247,000
1,002	 -37,993	 -0,113	 -29,188	 248,900
0,996	 -37,808	 -0,113	 -29,036	 250,800
0,988	 -37,610	 -0,112	 -28,888	 252,700
0,983	 -37,424	 -0,113	 -28,746	 254,600
0,975	 -37,234	 -0,113	 -28,599	 256,500
0,970	 -37,046	 -0,113	 -28,454	 258,400
0,961	 -36,858	 -0,113	 -28,306	 260,300
0,953	 -36,663	 -0,113	 -28,163	 262,200
0,947	 -36,474	 -0,113	 -28,021	 264,100
0,938	 -36,283	 -0,113	 -27,870	 266,000
0,929	 -36,092	 -0,113	 -27,722	 267,900
0,923	 -35,904	 -0,113	 -27,576	 269,800
0,917	 -35,715	 -0,112	 -27,431	 271,700
0,910	 -35,526	 -0,113	 -27,289	 273,600
0,902	 -35,333	 -0,112	 -27,137	 275,500
0,895	 -35,144	 -0,113	 -26,992	 277,400
0,888	 -34,954	 -0,113	 -26,846	 279,300
0,876	 -34,763	 -0,112	 -26,702	 281,200
0,873	 -34,576	 -0,113	 -26,557	 283,100
0,866	 -34,383	 -0,113	 -26,407	 285,000
0,857	 -34,194	 -0,113	 -26,263	 286,900
0,849	 -34,009	 -0,113	 -26,119	 288,800
0,841	 -33,813	 -0,112	 -25,975	 290,700
0,833	 -33,626	 -0,113	 -25,825	 292,600
0,825	 -33,434	 -0,112	 -25,677	 294,500
0,817	 -33,243	 -0,113	 -25,537	 296,400
0,807	 -33,052	 -0,112	 -25,389	 298,300
0,798	 -32,867	 -0,112	 -25,241	 300,200
0,789	 -32,673	 -0,113	 -25,098	 302,100
0,777	 -32,482	 -0,112	 -24,946	 304,000
0,767	 -32,295	 -0,113	 -24,804	 305,900
0,758	 -32,103	 -0,112	 -24,655	 307,800
0,746	 -31,916	 -0,113	 -24,512	 309,700
0,734	 -31,726	 -0,113	 -24,367	 311,600
0,725	 -31,531	 -0,112	 -24,219	 313,500
0,715	 -31,347	 -0,113	 -24,074	 315,400
0,703	 -31,154	 -0,113	 -23,923	 317,300
0,692	 -30,969	 -0,113	 -23,783	 319,200
0,680	 -30,775	 -0,113	 -23,635	 321,100
0,668	 -30,582	 -0,113	 -23,489	 323,000
0,657	 -30,396	 -0,112	 -23,347	 324,900
0,647	 -30,207	 -0,113	 -23,199	 326,800
0,635	 -30,013	 -0,113	 -23,051	 328,700
0,624	 -29,829	 -0,112	 -22,904	 330,600
0,610	 -29,636	 -0,113	 -22,759	 332,500
0,596	 -29,445	 -0,113	 -22,610	 334,400
0,586	 -29,251	 -0,112	 -22,466	 336,300
0,572	 -29,065	 -0,112	 -22,323	 338,200
0,560	 -28,875	 -0,113	 -22,177	 340,100
0,546	 -28,687	 -0,113	 -22,030	 342,000
0,533	 -28,498	 -0,112	 -21,883	 343,900
0,519	 -28,306	 -0,113	 -21,734	 345,800
0,505	 -28,115	 -0,113	 -21,593	 347,700
0,491	 -27,924	 -0,113	 -21,445	 349,600
0,478	 -27,735	 -0,113	 -21,298	 351,500
0,464	 -27,545	 -0,113	 -21,154	 353,400
0,449	 -27,353	 -0,112	 -21,002	 355,300
0,434	 -27,169	 -0,113	 -20,860	 357,200
0,420	 -26,978	 -0,113	 -20,717	 359,100
0,406	 -26,781	 -0,112	 -20,568	 361,000
0,390	 -26,597	 -0,113	 -20,427	 362,900
0,376	 -26,402	 -0,113	 -20,279	 364,800
0,360	 -26,215	 -0,112	 -20,132	 366,700
0,345	 -26,021	 -0,112	 -19,980	 368,600
0,330	 -25,834	 -0,112	 -19,836	 370,500
0,314	 -25,642	 -0,113	 -19,694	 372,400
0,298	 -25,452	 -0,112	 -19,549	 374,300
0,284	 -25,263	 -0,113	 -19,405	 376,200
0,268	 -25,071	 -0,113	 -19,258	 378,100
0,252	 -24,883	 -0,112	 -19,107	 380,000
0,235	 -24,692	 -0,112	 -18,964	 381,900
0,221	 -24,499	 -0,112	 -18,818	 383,800
0,204	 -24,310	 -0,113	 -18,671	 385,700
0,189	 -24,121	 -0,113	 -18,525	 387,600
0,174	 -23,932	 -0,112	 -18,381	 389,500
0,159	 -23,740	 -0,112	 -18,236	 391,400
0,144	 -23,552	 -0,112	 -18,088	 393,300
0,129	 -23,358	 -0,112	 -17,937	 395,200
0,115	 -23,172	 -0,113	 -17,794	 397,100
0,101	 -22,980	 -0,113	 -17,649	 399,000
0,088	 -22,788	 -0,113	 -17,506	 400,900
0,075	 -22,601	 -0,112	 -17,357	 402,800
0,063	 -22,409	 -0,113	 -17,210	 404,700
0,052	 -22,218	 -0,112	 -17,066	 406,600
0,042	 -22,029	 -0,113	 -16,921	 408,500
0,032	 -21,841	 -0,113	 -16,775	 410,400
0,024	 -21,647	 -0,113	 -16,627	 412,300
0,017	 -21,460	 -0,113	 -16,482	 414,200
0,012	 -21,270	 -0,113	 -16,339	 416,100
0,007	 -21,077	 -0,113	 -16,190	 418,000
0,007	 -20,891	 -0,113	 -16,038	 419,900
0,007	 -20,701	 -0,112	 -15,896	 421,800
0,007	 -20,511	 -0,113	 -15,752	 423,700
0,006	 -20,322	 -0,113	 -15,606	 425,600
0,006	 -20,132	 -0,113	 -15,460	 427,500
0,007	 -19,940	 -0,113	 -15,315	 429,400
0,007	 -19,750	 -0,113	 -15,166	 431,300
0,007	 -19,560	 -0,113	 -15,020	 433,200
0,007	 -19,369	 -0,113	 -14,874	 435,100
0,007	 -19,177	 -0,113	 -14,724	 437,000
0,007	 -18,991	 -0,113	 -14,582	 438,900
0,007	 -18,799	 -0,113	 -14,439	 440,800
0,007	 -18,611	 -0,112	 -14,294	 442,700
0,007	 -18,553	 -0,113	 -14,248	 443,300

File: data_example_1.txt
WORKSHOP 3 EXPORTED DATA: [C:\Documents and Settings\Administrator\Pulpit\POIG\1050_15.W01 - 1]
*************************************************************************************************
Source of data: ScriptPl
WS3 File Version: 1,05
Number of bytes in subfile: 167287
Total number of data points: 8339
Test date: 09-10-2011
Test time: 08:33:38
Player Step: 1
Step Capture No: 1
Actuator: 1
*************************************************************************************************
Actuator: 1  Channel:0	 Actuator: 1  Channel:1	 Actuator: 1  Channel:2	 Actuator: 1  Channel:3	 Actuator: 1  Channel:4
Load (kN)	 Stroke (mm)	 Extension (mm)	 Command (%)	 Time (s)
-0,024	 -58,313	 -0,015	 -44,799	 0,000
0,024	 -58,172	 -0,026	 -44,700	 8,500
0,065	 -58,040	 -0,043	 -44,591	 17,000
0,122	 -57,905	 -0,048	 -44,492	 25,500
0,155	 -57,769	 -0,049	 -44,383	 34,000
0,843	 -57,632	 -0,031	 -44,275	 42,500
1,071	 -57,502	 0,065	 -44,172	 51,000
1,172	 -57,368	 0,167	 -44,063	 59,500
1,231	 -57,234	 0,269	 -43,964	 68,000
1,284	 -57,106	 0,373	 -43,861	 76,500
1,322	 -56,963	 0,487	 -43,754	 85,000
1,354	 -56,825	 0,594	 -43,657	 93,500
1,378	 -56,690	 0,703	 -43,546	 102,000
1,408	 -56,551	 0,820	 -43,440	 110,500
1,433	 -56,416	 0,932	 -43,338	 119,000
1,455	 -56,274	 1,030	 -43,232	 127,500
1,476	 -56,136	 1,152	 -43,132	 136,000
1,503	 -56,000	 2,126	 -43,031	 144,500
1,525	 -55,865	 1,093	 -42,920	 153,000
1,537	 -55,728	 1,093	 -42,820	 161,500
1,551	 -55,587	 1,098	 -42,713	 170,000
1,570	 -55,453	 1,098	 -42,608	 178,500
1,586	 -55,316	 1,098	 -42,503	 187,000
1,605	 -55,185	 1,101	 -42,401	 195,500
1,609	 -55,044	 1,102	 -42,294	 204,000
1,625	 -54,914	 1,102	 -42,193	 212,500
1,634	 -54,774	 1,101	 -42,086	 221,000
1,650	 -54,636	 1,102	 -41,981	 229,500
1,666	 -54,502	 1,102	 -41,877	 238,000
1,671	 -54,362	 1,102	 -41,771	 246,500
1,686	 -54,222	 1,101	 -41,664	 255,000
1,694	 -54,086	 1,102	 -41,566	 263,500
1,710	 -53,954	 1,101	 -41,459	 272,000
1,711	 -53,819	 1,101	 -41,354	 280,500
1,718	 -53,686	 1,102	 -41,256	 289,000
1,733	 -53,545	 1,102	 -41,146	 297,500
1,731	 -53,408	 1,102	 -41,041	 306,000
1,752	 -53,277	 1,102	 -40,938	 314,500
1,733	 -53,137	 1,101	 -40,832	 323,000
1,762	 -53,004	 1,101	 -40,734	 331,500
1,753	 -52,867	 1,102	 -40,620	 340,000
1,748	 -52,728	 1,101	 -40,518	 348,500
1,733	 -52,600	 1,102	 -40,415	 357,000
1,710	 -52,461	 1,102	 -40,304	 365,500
1,674	 -52,320	 1,102	 -40,207	 374,000
1,632	 -52,185	 1,102	 -40,098	 382,500
1,587	 -52,050	 1,102	 -39,994	 391,000
1,557	 -51,918	 1,101	 -39,890	 399,500
1,539	 -51,778	 1,102	 -39,788	 408,000
1,540	 -51,643	 1,102	 -39,681	 416,500
1,537	 -51,505	 1,102	 -39,576	 425,000
1,553	 -51,370	 1,102	 -39,477	 433,500
1,560	 -51,229	 1,102	 -39,363	 442,000
1,575	 -51,097	 1,102	 -39,261	 450,500
1,577	 -50,962	 1,102	 -39,154	 459,000
1,586	 -50,825	 1,102	 -39,058	 467,500
1,604	 -50,687	 1,102	 -38,951	 476,000
1,610	 -50,556	 1,102	 -38,845	 484,500
1,610	 -50,421	 1,102	 -38,742	 493,000
1,620	 -50,284	 1,102	 -38,634	 501,500
1,621	 -50,150	 1,102	 -38,532	 510,000
1,621	 -50,008	 1,102	 -38,429	 518,500
1,625	 -49,870	 1,103	 -38,322	 527,000
1,610	 -49,741	 1,103	 -38,219	 535,500
1,604	 -49,603	 1,103	 -38,115	 544,000
1,598	 -49,465	 1,102	 -38,005	 552,500
1,582	 -49,330	 1,103	 -37,905	 561,000
1,564	 -49,192	 1,103	 -37,802	 569,500
1,537	 -49,054	 1,103	 -37,693	 578,000
1,518	 -48,920	 1,103	 -37,589	 586,500
1,497	 -48,787	 1,103	 -37,485	 595,000
1,474	 -48,642	 1,103	 -37,379	 603,500
1,450	 -48,510	 1,103	 -37,276	 612,000
1,433	 -48,374	 1,104	 -37,174	 620,500
1,433	 -48,244	 1,104	 -37,066	 629,000
1,419	 -48,111	 1,104	 -36,968	 637,500
1,423	 -47,977	 1,103	 -36,861	 646,000
1,415	 -47,838	 1,104	 -36,756	 654,500
1,423	 -47,703	 1,103	 -36,648	 663,000
1,416	 -47,569	 1,104	 -36,544	 671,500
1,426	 -47,432	 1,104	 -36,441	 680,000
1,428	 -47,290	 1,105	 -36,339	 688,500
1,425	 -47,158	 1,103	 -36,231	 697,000
1,420	 -47,020	 1,105	 -36,128	 705,500
1,417	 -46,886	 1,105	 -36,025	 714,000
1,416	 -46,751	 1,104	 -35,920	 722,500
1,416	 -46,612	 1,105	 -35,816	 731,000
1,413	 -46,477	 1,105	 -35,712	 739,500
1,400	 -46,339	 1,104	 -35,605	 748,000
1,389	 -46,203	 1,105	 -35,500	 756,500
1,381	 -46,070	 1,105	 -35,394	 765,000
1,369	 -45,934	 1,105	 -35,291	 773,500
1,365	 -45,789	 1,105	 -35,190	 782,000
1,360	 -45,664	 1,105	 -35,085	 790,500
1,350	 -45,522	 1,105	 -34,983	 799,000
1,336	 -45,387	 1,105	 -34,875	 807,500
1,330	 -45,246	 1,105	 -34,770	 816,000
1,326	 -45,113	 1,105	 -34,668	 824,500
1,325	 -44,979	 1,105	 -34,562	 833,000
1,319	 -44,842	 1,105	 -34,452	 841,500
1,306	 -44,705	 1,106	 -34,353	 850,000
1,297	 -44,571	 1,106	 -34,247	 858,500
1,295	 -44,438	 1,105	 -34,142	 867,000
1,288	 -44,301	 1,106	 -34,039	 875,500
1,279	 -44,159	 1,106	 -33,933	 884,000
1,277	 -44,026	 1,106	 -33,831	 892,500
1,270	 -43,894	 1,106	 -33,724	 901,000
1,266	 -43,752	 1,106	 -33,624	 909,500
1,262	 -43,616	 1,105	 -33,515	 918,000
1,259	 -43,482	 1,106	 -33,410	 926,500
1,249	 -43,348	 1,106	 -33,308	 935,000
1,241	 -43,211	 1,106	 -33,201	 943,500
1,231	 -43,071	 1,106	 -33,105	 952,000
1,230	 -42,937	 1,106	 -32,996	 960,500
1,222	 -42,801	 1,106	 -32,892	 969,000
1,220	 -42,670	 1,106	 -32,782	 977,500
1,214	 -42,531	 1,106	 -32,679	 986,000
1,202	 -42,396	 1,106	 -32,575	 994,500
1,197	 -42,260	 1,106	 -32,471	 1003,000
1,189	 -42,123	 1,107	 -32,366	 1011,500
1,183	 -41,984	 1,106	 -32,261	 1020,000
1,178	 -41,851	 1,106	 -32,153	 1028,500
1,176	 -41,716	 1,106	 -32,056	 1037,000
1,169	 -41,578	 1,107	 -31,950	 1045,500
1,163	 -41,442	 1,106	 -31,844	 1054,000
1,158	 -41,303	 1,107	 -31,740	 1062,500
1,148	 -41,171	 1,106	 -31,634	 1071,000
1,138	 -41,031	 1,106	 -31,529	 1079,500
1,131	 -40,891	 1,106	 -31,424	 1088,000
1,126	 -40,758	 1,107	 -31,320	 1096,500
1,118	 -40,623	 1,107	 -31,217	 1105,000
1,111	 -40,488	 1,107	 -31,113	 1113,500
1,100	 -40,353	 1,107	 -31,012	 1122,000
1,096	 -40,215	 1,107	 -30,907	 1130,500
1,093	 -40,081	 1,107	 -30,798	 1139,000
1,082	 -39,947	 1,107	 -30,693	 1147,500
1,079	 -39,806	 1,107	 -30,589	 1156,000
1,074	 -39,673	 1,106	 -30,488	 1164,500
1,068	 -39,533	 1,107	 -30,378	 1173,000
1,056	 -39,396	 1,107	 -30,278	 1181,500
1,051	 -39,262	 1,107	 -30,174	 1190,000
1,048	 -39,128	 1,107	 -30,069	 1198,500
1,038	 -38,992	 1,106	 -29,965	 1207,000
1,029	 -38,853	 1,107	 -29,854	 1215,500
1,024	 -38,721	 1,107	 -29,752	 1224,000
1,021	 -38,584	 1,107	 -29,651	 1232,500
1,012	 -38,445	 1,107	 -29,541	 1241,000
1,002	 -38,316	 1,107	 -29,439	 1249,500
0,999	 -38,171	 1,108	 -29,338	 1258,000
0,988	 -38,041	 1,107	 -29,232	 1266,500
0,984	 -37,902	 1,107	 -29,134	 1275,000
0,972	 -37,769	 1,107	 -29,022	 1283,500
0,961	 -37,631	 1,107	 -28,919	 1292,000
0,957	 -37,501	 1,107	 -28,811	 1300,500
0,951	 -37,358	 1,107	 -28,707	 1309,000
0,944	 -37,227	 1,107	 -28,604	 1317,500
0,932	 -37,089	 1,107	 -28,505	 1326,000
0,926	 -36,951	 1,107	 -28,393	 1334,500
0,914	 -36,819	 1,107	 -28,292	 1343,000
0,911	 -36,676	 1,107	 -28,187	 1351,500
0,898	 -36,544	 1,107	 -28,082	 1360,000
0,894	 -36,410	 1,107	 -27,981	 1368,500
0,886	 -36,270	 1,107	 -27,875	 1377,000
0,883	 -36,139	 1,107	 -27,767	 1385,500
0,874	 -36,000	 1,107	 -27,664	 1394,000
0,865	 -35,861	 1,107	 -27,563	 1402,500
0,856	 -35,726	 1,107	 -27,456	 1411,000
0,847	 -35,592	 1,107	 -27,352	 1419,500
0,840	 -35,460	 1,108	 -27,249	 1428,000
0,826	 -35,318	 1,107	 -27,145	 1436,500
0,821	 -35,182	 1,107	 -27,043	 1445,000
0,810	 -35,049	 1,107	 -26,931	 1453,500
0,805	 -34,911	 1,107	 -26,827	 1462,000
0,795	 -34,775	 1,108	 -26,728	 1470,500
0,786	 -34,639	 1,107	 -26,619	 1479,000
0,771	 -34,504	 1,108	 -26,517	 1487,500
0,762	 -34,368	 1,108	 -26,410	 1496,000
0,755	 -34,232	 1,107	 -26,310	 1504,500
0,749	 -34,093	 1,107	 -26,202	 1513,000
0,739	 -33,957	 1,107	 -26,097	 1521,500
0,728	 -33,826	 1,107	 -25,993	 1530,000
0,716	 -33,685	 1,107	 -25,891	 1538,500
0,709	 -33,549	 1,107	 -25,782	 1547,000
0,699	 -33,419	 1,107	 -25,679	 1555,500
0,692	 -33,276	 1,107	 -25,574	 1564,000
0,676	 -33,141	 1,107	 -25,473	 1572,500
0,664	 -33,007	 1,107	 -25,367	 1581,000
0,655	 -32,871	 1,107	 -25,267	 1589,500
0,646	 -32,736	 1,107	 -25,159	 1598,000
0,632	 -32,597	 1,107	 -25,053	 1606,500
0,623	 -32,463	 1,107	 -24,942	 1615,000
0,615	 -32,327	 1,107	 -24,842	 1623,500
0,605	 -32,188	 1,107	 -24,742	 1632,000
0,595	 -32,054	 1,107	 -24,636	 1640,500
0,584	 -31,919	 1,107	 -24,529	 1649,000
0,571	 -31,779	 1,107	 -24,429	 1657,500
0,557	 -31,645	 1,107	 -24,321	 1666,000
0,552	 -31,509	 1,107	 -24,216	 1674,500
0,538	 -31,374	 1,107	 -24,119	 1683,000
0,525	 -31,239	 1,108	 -24,008	 1691,500
0,510	 -31,101	 1,107	 -23,898	 1700,000
0,499	 -30,966	 1,108	 -23,796	 1708,500
0,486	 -30,830	 1,107	 -23,692	 1717,000
0,473	 -30,693	 1,108	 -23,593	 1725,500
0,463	 -30,559	 1,108	 -23,485	 1734,000
0,449	 -30,420	 1,107	 -23,383	 1742,500
0,439	 -30,282	 1,108	 -23,279	 1751,000
0,425	 -30,150	 1,107	 -23,171	 1759,500
0,422	 -30,010	 1,107	 -23,068	 1768,000
0,407	 -29,870	 1,107	 -22,961	 1776,500
0,394	 -29,741	 1,108	 -22,856	 1785,000
0,381	 -29,607	 1,108	 -22,756	 1793,500
0,365	 -29,469	 1,108	 -22,650	 1802,000
0,351	 -29,329	 1,108	 -22,543	 1810,500
0,337	 -29,196	 1,108	 -22,439	 1819,000
0,334	 -29,061	 1,108	 -22,334	 1827,500
0,318	 -28,922	 1,108	 -22,231	 1836,000
0,306	 -28,790	 1,108	 -22,128	 1844,500
0,295	 -28,649	 1,108	 -22,017	 1853,000
0,273	 -28,514	 1,108	 -21,914	 1861,500
0,264	 -28,378	 1,108	 -21,813	 1870,000
0,252	 -28,242	 1,108	 -21,708	 1878,500
0,240	 -28,106	 1,108	 -21,604	 1887,000
0,227	 -27,971	 1,108	 -21,502	 1895,500
0,214	 -27,840	 1,108	 -21,396	 1904,000
0,202	 -27,698	 1,108	 -21,292	 1912,500
0,195	 -27,565	 1,108	 -21,185	 1921,000
0,183	 -27,426	 1,108	 -21,082	 1929,500
0,170	 -27,291	 1,108	 -20,976	 1938,000
0,157	 -27,152	 1,108	 -20,869	 1946,500
0,146	 -27,015	 1,108	 -20,768	 1955,000
0,135	 -26,879	 1,108	 -20,665	 1963,500
0,127	 -26,747	 1,108	 -20,555	 1972,000
0,107	 -26,609	 1,108	 -20,454	 1980,500
0,098	 -26,473	 1,108	 -20,353	 1989,000
0,089	 -26,338	 1,108	 -20,246	 1997,500
0,071	 -26,197	 1,108	 -20,144	 2006,000
0,059	 -26,067	 1,108	 -20,037	 2014,500
0,054	 -25,925	 1,108	 -19,931	 2023,000
0,049	 -25,791	 1,109	 -19,830	 2031,500
0,045	 -25,653	 1,108	 -19,720	 2040,000
0,038	 -25,519	 1,108	 -19,615	 2048,500
0,032	 -25,384	 1,108	 -19,518	 2057,000
0,030	 -25,246	 1,108	 -19,405	 2065,500
0,026	 -25,114	 1,109	 -19,306	 2074,000
0,021	 -24,979	 1,108	 -19,203	 2082,500
0,024	 -24,943	 1,108	 -19,178	 2084,500