Folder: stt-plotter/examples (part 4)

File: data_example_7_b.txt
WORKSHOP 3 EXPORTED DATA: [C:\Documents and Settings\Administrator\Pulpit\Rozciaganie\w5_2.W01 - 1]
*************************************************************************************************
Source of data: ScriptPl
WS3 File Version: 1,05
Number of bytes in subfile: 10427
Total number of data points: 496
Test date: 30-01-2018
Test time: 16:53:17
Player Step: 1
Step Capture No: 1
Actuator: 1
*************************************************************************************************
Actuator: 1  Channel:0	 Actuator: 1  Channel:1	 Actuator: 1  Channel:2	 Actuator: 1  Channel:3	 Actuator: 1  Channel:4
Load (kN)	 Stroke (mm)	 Extension (mm)	 Command (%)	 Time (s)
0,911	-61,358	0,000	-47,155	0
1,706	-61,324	0,000	-47,125	2
2,462	-61,287	0,002	-47,099	4
3,391	-61,252	0,006	-47,065	6
4,285	-61,211	0,008	-47,033	8
5,243	-61,172	0,014	-47,001	10
6,244	-61,134	0,018	-46,977	12
7,276	-61,094	0,021	-46,940	14
8,501	-61,059	0,021	-46,906	16
10,089	-61,023	0,025	-46,876	18
11,775	-60,980	0,031	-46,848	20
13,642	-60,944	0,035	-46,817	22
15,410	-60,911	0,035	-46,784	24
17,441	-60,868	0,043	-46,754	26
19,377	-60,833	0,045	-46,722	28
21,415	-60,796	0,047	-46,697	30
23,261	-60,756	0,049	-46,662	32
25,108	-60,724	0,066	-46,633	34
26,845	-60,685	0,102	-46,602	36
28,697	-60,643	0,130	-46,574	38
30,333	-60,610	0,158	-46,548	40
31,813	-60,572	0,187	-46,515	42
33,335	-60,533	0,224	-46,476	44
34,738	-60,497	0,261	-46,448	46
35,975	-60,457	0,300	-46,416	48
37,129	-60,419	0,348	-46,387	50
38,224	-60,381	0,413	-46,358	52
39,217	-60,340	0,483	-46,327	54
40,111	-60,302	0,555	-46,294	56
41,013	-60,266	0,639	-46,262	58
41,754	-60,225	0,727	-46,233	60
42,536	-60,186	0,809	-46,198	62
43,202	-60,150	0,897	-46,169	64
43,780	-60,108	0,973	-46,144	66
44,495	-60,071	1,054	-46,109	68
44,978	-60,027	1,133	-46,079	70
45,471	-59,987	1,216	-46,046	72
45,951	-59,951	1,290	-46,015	74
46,407	-59,912	1,366	-45,983	76
46,820	-59,868	1,440	-45,954	78
47,297	-59,835	1,513	-45,927	80
47,676	-59,794	1,584	-45,892	82
48,053	-59,752	1,658	-45,864	84
48,421	-59,710	1,735	-45,838	86
48,772	-59,675	1,805	-45,803	88
49,180	-59,636	1,869	-45,772	90
49,430	-59,594	1,933	-45,743	92
49,804	-59,556	1,996	-45,708	94
50,026	-59,513	2,055	-45,683	96
50,447	-59,473	2,112	-45,650	98
50,572	-59,439	2,164	-45,621	100
50,852	-59,396	2,214	-45,588	102
51,211	-59,357	2,256	-45,560	104
51,494	-59,315	2,298	-45,522	106
51,604	-59,278	2,340	-45,494	108
51,865	-59,238	2,378	-45,464	110
52,131	-59,200	2,420	-45,431	112
52,361	-59,156	2,456	-45,402	114
52,568	-59,123	2,496	-45,376	116
52,760	-59,079	2,537	-45,343	118
53,025	-59,034	2,575	-45,311	120
53,140	-59,003	2,613	-45,277	122
53,356	-58,957	2,651	-45,248	124
53,552	-58,922	2,688	-45,219	126
53,721	-58,881	2,727	-45,187	128
53,886	-58,841	2,763	-45,160	130
54,048	-58,798	2,804	-45,128	132
54,213	-58,761	2,838	-45,098	134
54,376	-58,721	2,875	-45,069	136
54,553	-58,682	2,911	-45,036	138
54,680	-58,636	2,951	-45,005	140
54,888	-58,599	2,986	-44,977	142
54,978	-58,562	3,024	-44,938	144
55,166	-58,514	3,062	-44,918	146
55,231	-58,482	3,098	-44,880	148
55,407	-58,441	3,133	-44,850	150
55,528	-58,394	3,171	-44,816	152
55,623	-58,362	3,423	-44,787	154
55,774	-58,323	4,232	-44,761	156
55,874	-58,281	4,271	-44,728	158
56,033	-58,238	3,791	-44,694	160
56,091	-58,201	0,731	-44,661	162
56,295	-58,161	-0,151	-44,640	164
56,323	-58,119	2,392	-44,607	166
56,419	-58,080	2,398	-44,580	168
56,549	-58,042	2,398	-44,541	170
56,644	-58,004	2,393	-44,511	172
56,776	-57,963	2,395	-44,480	174
56,823	-57,919	2,396	-44,442	176
56,900	-57,883	2,397	-44,420	178
57,041	-57,842	2,399	-44,388	180
57,077	-57,801	2,400	-44,361	182
57,165	-57,763	2,399	-44,329	184
57,310	-57,726	2,399	-44,294	186
57,356	-57,680	2,399	-44,264	188
57,430	-57,645	2,400	-44,230	190
57,553	-57,601	2,399	-44,201	192
57,581	-57,556	2,400	-44,174	194
57,644	-57,526	2,399	-44,144	196
57,728	-57,485	2,400	-44,113	198
57,842	-57,445	2,400	-44,083	200
57,899	-57,404	2,399	-44,058	202
57,956	-57,365	2,400	-44,020	204
58,027	-57,327	2,399	-43,988	206
58,125	-57,281	2,399	-43,953	208
58,164	-57,241	2,400	-43,929	210
58,213	-57,205	2,399	-43,904	212
58,295	-57,163	2,400	-43,864	214
58,369	-57,123	2,400	-43,841	216
58,411	-57,085	2,400	-43,804	218
58,464	-57,045	2,400	-43,777	220
58,543	-57,003	2,400	-43,753	222
58,597	-56,965	2,400	-43,716	224
58,640	-56,925	2,399	-43,686	226
58,687	-56,884	2,400	-43,649	228
58,751	-56,844	2,399	-43,620	230
58,788	-56,804	2,399	-43,590	232
58,877	-56,769	2,400	-43,556	234
58,924	-56,724	2,400	-43,528	236
58,959	-56,687	2,400	-43,497	238
58,999	-56,646	2,400	-43,465	240
59,058	-56,607	2,400	-43,431	242
59,102	-56,567	2,400	-43,403	244
59,146	-56,524	2,400	-43,377	246
59,196	-56,484	2,400	-43,341	248
59,248	-56,445	2,401	-43,311	250
59,289	-56,403	2,400	-43,281	252
59,327	-56,362	2,400	-43,254	254
59,369	-56,324	2,400	-43,218	256
59,407	-56,283	2,400	-43,188	258
59,454	-56,244	2,400	-43,163	260
59,488	-56,205	2,400	-43,135	262
59,528	-56,164	2,400	-43,099	264
59,572	-56,121	2,400	-43,070	266
59,602	-56,084	2,400	-43,037	268
59,645	-56,045	2,401	-43,003	270
59,678	-56,007	2,401	-42,974	272
59,717	-55,966	2,400	-42,946	274
59,764	-55,926	2,400	-42,912	276
59,789	-55,884	2,401	-42,885	278
59,809	-55,846	2,400	-42,851	280
59,825	-55,805	2,401	-42,825	282
59,880	-55,769	2,400	-42,791	284
59,939	-55,725	2,400	-42,762	286
59,951	-55,685	2,400	-42,731	288
59,991	-55,642	2,400	-42,698	290
59,984	-55,603	2,401	-42,667	292
60,013	-55,562	2,400	-42,639	294
60,103	-55,528	2,400	-42,608	296
60,109	-55,486	2,400	-42,576	298
60,141	-55,445	2,399	-42,544	300
60,145	-55,405	2,400	-42,512	302
60,153	-55,362	2,400	-42,480	304
60,171	-55,330	2,400	-42,455	306
60,321	-55,285	2,400	-42,420	308
60,252	-55,241	2,400	-42,393	310
60,267	-55,199	2,401	-42,364	312
60,276	-55,158	2,400	-42,325	314
60,308	-55,117	2,400	-42,297	316
60,323	-55,082	2,400	-42,270	318
60,354	-55,045	2,401	-42,235	320
60,420	-55,007	2,400	-42,200	322
60,456	-54,965	2,400	-42,179	324
60,440	-54,929	2,400	-42,146	326
60,446	-54,887	2,400	-42,115	328
60,482	-54,846	2,400	-42,091	330
60,585	-54,806	2,401	-42,050	332
60,552	-54,760	2,400	-42,023	334
60,508	-54,722	2,401	-41,993	336
60,530	-54,679	2,400	-41,959	338
60,563	-54,643	2,401	-41,931	340
60,579	-54,602	2,401	-41,904	342
60,587	-54,567	2,400	-41,869	344
60,678	-54,531	2,400	-41,840	346
60,680	-54,484	2,400	-41,805	348
60,666	-54,443	2,400	-41,780	350
60,670	-54,405	2,400	-41,751	352
60,668	-54,365	2,400	-41,717	354
60,728	-54,321	2,401	-41,687	356
60,775	-54,284	2,400	-41,653	358
60,757	-54,238	2,401	-41,622	360
60,725	-54,207	2,400	-41,591	362
60,736	-54,165	2,401	-41,564	364
60,804	-54,123	2,401	-41,531	366
60,783	-54,086	2,401	-41,497	368
60,782	-54,046	2,400	-41,476	370
60,887	-54,000	2,400	-41,437	372
60,829	-53,959	2,400	-41,406	374
60,819	-53,919	2,400	-41,377	376
60,846	-53,880	2,400	-41,343	378
60,837	-53,839	2,400	-41,314	380
60,843	-53,806	2,401	-41,289	382
60,923	-53,766	2,400	-41,255	384
60,916	-53,719	2,400	-41,228	386
60,887	-53,685	2,400	-41,190	388
60,909	-53,646	2,400	-41,162	390
60,953	-53,602	2,400	-41,135	392
60,940	-53,565	2,400	-41,096	394
60,942	-53,526	2,401	-41,069	396
60,964	-53,486	2,400	-41,038	398
60,953	-53,447	2,400	-41,006	400
60,947	-53,402	2,400	-40,970	402
60,975	-53,364	2,401	-40,949	404
60,984	-53,324	2,401	-40,918	406
60,978	-53,283	2,401	-40,882	408
60,982	-53,244	2,401	-40,861	410
60,988	-53,202	2,401	-40,828	412
60,981	-53,166	2,401	-40,793	414
61,004	-53,123	2,401	-40,773	416
61,023	-53,085	2,401	-40,728	418
61,001	-53,040	2,401	-40,704	420
60,997	-53,004	2,401	-40,674	422
61,026	-52,965	2,401	-40,635	424
61,014	-52,923	2,401	-40,608	426
61,006	-52,883	2,401	-40,574	428
61,014	-52,843	2,401	-40,542	430
61,030	-52,800	2,401	-40,513	432
60,993	-52,762	2,401	-40,487	434
60,970	-52,723	2,401	-40,457	436
60,981	-52,682	2,401	-40,425	438
61,001	-52,644	2,401	-40,392	440
61,011	-52,602	2,402	-40,355	442
61,010	-52,556	2,401	-40,325	444
60,965	-52,518	2,401	-40,296	446
60,939	-52,478	2,401	-40,268	448
60,931	-52,435	2,401	-40,238	450
60,923	-52,394	2,401	-40,201	452
60,911	-52,356	2,402	-40,176	454
60,866	-52,311	2,408	-40,146	456
60,827	-52,271	2,408	-40,125	458
60,801	-52,238	2,407	-40,083	460
60,799	-52,191	2,408	-40,047	462
60,787	-52,149	2,408	-40,025	464
60,703	-52,112	2,407	-39,993	466
60,646	-52,067	2,408	-39,956	468
60,590	-52,028	2,407	-39,931	470
60,559	-51,990	2,407	-39,905	472
60,471	-51,951	2,408	-39,871	474
60,326	-51,912	2,407	-39,842	476
60,324	-51,870	2,408	-39,815	478
0,001	-51,771	2,416	-39,782	480
0,003	-51,733	2,416	-39,752	482
0,004	-51,694	2,415	-39,713	484
0,006	-51,654	2,415	-39,684	486
0,010	-51,609	2,416	-39,648	488
0,008	-51,572	2,415	-39,619	490
0,006	-51,533	2,415	-39,588	492
0,006	-51,488	2,416	-39,560	494
0,007	-51,470	2,415	-39,542	495

File: data_example_8.txt
WORKSHOP 3 EXPORTED DATA: [C:\Documents and Settings\Administrator\Pulpit\Rozciaganie\w6_1.W01 - 1]
*************************************************************************************************
Source of data: ScriptPl
WS3 File Version: 1,05
Number of bytes in subfile: 11887
Total number of data points: 569
Test date: 30-01-2018
Test time: 17:12:24
Player Step: 1
Step Capture No: 1
Actuator: 1
*************************************************************************************************
Actuator: 1  Channel:0	 Actuator: 1  Channel:1	 Actuator: 1  Channel:2	 Actuator: 1  Channel:3	 Actuator: 1  Channel:4
Load (kN)	 Stroke (mm)	 Extension (mm)	 Command (%)	 Time (s)
0,017	 -62,606	 0,000	 -48,112	 0,000
0,025	 -62,541	 0,000	 -48,068	 3,000
0,028	 -62,483	 0,002	 -48,020	 6,000
0,041	 -62,420	 0,002	 -47,973	 9,000
0,048	 -62,366	 0,005	 -47,931	 12,000
0,055	 -62,303	 0,000	 -47,876	 15,000
0,055	 -62,245	 -0,019	 -47,836	 18,000
0,062	 -62,189	 -0,019	 -47,788	 21,000
0,063	 -62,123	 -0,019	 -47,745	 24,000
0,069	 -62,065	 -0,018	 -47,696	 27,000
0,078	 -62,003	 -0,029	 -47,651	 30,000
0,080	 -61,946	 -0,023	 -47,608	 33,000
0,082	 -61,887	 -0,017	 -47,556	 36,000
0,096	 -61,826	 -0,021	 -47,515	 39,000
0,107	 -61,768	 -0,020	 -47,464	 42,000
0,109	 -61,705	 -0,017	 -47,420	 45,000
0,129	 -61,648	 -0,014	 -47,373	 48,000
0,159	 -61,587	 -0,011	 -47,326	 51,000
0,199	 -61,530	 -0,008	 -47,284	 54,000
0,206	 -61,470	 0,001	 -47,231	 57,000
0,319	 -61,408	 0,004	 -47,188	 60,000
0,497	 -61,346	 0,005	 -47,139	 63,000
1,291	 -61,294	 0,006	 -47,098	 66,000
2,746	 -61,235	 0,010	 -47,047	 69,000
4,565	 -61,175	 0,016	 -47,003	 72,000
6,691	 -61,123	 0,020	 -46,956	 75,000
9,001	 -61,063	 0,031	 -46,909	 78,000
11,584	 -61,007	 0,043	 -46,865	 81,000
14,413	 -60,953	 0,057	 -46,815	 84,000
17,513	 -60,897	 0,074	 -46,773	 87,000
20,487	 -60,839	 0,089	 -46,730	 90,000
23,495	 -60,783	 0,103	 -46,688	 93,000
26,300	 -60,727	 0,114	 -46,633	 96,000
29,090	 -60,672	 0,134	 -46,589	 99,000
31,656	 -60,618	 0,157	 -46,543	 102,000
34,141	 -60,557	 0,183	 -46,491	 105,000
36,270	 -60,499	 0,206	 -46,447	 108,000
38,373	 -60,445	 0,235	 -46,399	 111,000
40,174	 -60,383	 0,267	 -46,356	 114,000
41,775	 -60,330	 0,301	 -46,311	 117,000
42,990	 -60,270	 0,336	 -46,267	 120,000
44,061	 -60,217	 0,375	 -46,222	 123,000
45,122	 -60,152	 0,415	 -46,172	 126,000
45,988	 -60,101	 0,459	 -46,129	 129,000
46,626	 -60,038	 0,507	 -46,085	 132,000
47,346	 -59,977	 0,555	 -46,039	 135,000
47,950	 -59,915	 0,604	 -45,989	 138,000
48,410	 -59,854	 0,653	 -45,945	 141,000
48,882	 -59,799	 0,695	 -45,892	 144,000
49,274	 -59,742	 0,738	 -45,853	 147,000
49,747	 -59,680	 0,795	 -45,803	 150,000
50,014	 -59,620	 0,848	 -45,754	 153,000
50,390	 -59,566	 0,895	 -45,712	 156,000
50,637	 -59,504	 0,938	 -45,667	 159,000
51,109	 -59,438	 0,989	 -45,621	 162,000
51,324	 -59,379	 1,044	 -45,574	 165,000
51,566	 -59,319	 1,107	 -45,530	 168,000
51,780	 -59,263	 1,166	 -45,479	 171,000
52,006	 -59,203	 1,211	 -45,435	 174,000
52,217	 -59,145	 1,262	 -45,390	 177,000
52,445	 -59,081	 1,315	 -45,343	 180,000
52,661	 -59,022	 1,366	 -45,294	 183,000
52,755	 -58,961	 1,426	 -45,249	 186,000
52,931	 -58,904	 1,480	 -45,204	 189,000
53,122	 -58,841	 1,530	 -45,159	 192,000
53,269	 -58,784	 1,594	 -45,113	 195,000
53,421	 -58,722	 1,653	 -45,069	 198,000
53,596	 -58,665	 1,703	 -45,020	 201,000
53,700	 -58,603	 1,757	 -44,969	 204,000
53,849	 -58,541	 1,811	 -44,931	 207,000
53,946	 -58,487	 1,862	 -44,881	 210,000
54,067	 -58,418	 1,910	 -44,836	 213,000
54,235	 -58,364	 1,955	 -44,790	 216,000
54,290	 -58,305	 2,007	 -44,747	 219,000
54,419	 -58,240	 2,069	 -44,697	 222,000
54,475	 -58,186	 2,134	 -44,652	 225,000
54,602	 -58,122	 2,202	 -44,612	 228,000
54,666	 -58,063	 2,262	 -44,559	 231,000
54,790	 -58,000	 2,318	 -44,511	 234,000
54,783	 -57,938	 2,382	 -44,465	 237,000
54,897	 -57,883	 2,438	 -44,418	 240,000
54,956	 -57,819	 2,496	 -44,376	 243,000
55,054	 -57,763	 3,483	 -44,329	 246,000
55,095	 -57,700	 4,362	 -44,285	 249,000
55,153	 -57,638	 4,422	 -44,239	 252,000
55,190	 -57,577	 3,962	 -44,191	 255,000
55,295	 -57,522	 1,534	 -44,146	 258,000
55,315	 -57,461	 1,643	 -44,096	 261,000
55,372	 -57,402	 1,645	 -44,054	 264,000
55,422	 -57,339	 1,644	 -44,006	 267,000
55,460	 -57,283	 1,645	 -43,958	 270,000
55,511	 -57,221	 1,636	 -43,913	 273,000
55,553	 -57,157	 1,635	 -43,868	 276,000
55,553	 -57,098	 1,635	 -43,820	 279,000
55,624	 -57,038	 1,635	 -43,774	 282,000
55,664	 -56,974	 1,635	 -43,731	 285,000
55,674	 -56,916	 1,635	 -43,688	 288,000
55,739	 -56,856	 1,635	 -43,640	 291,000
55,698	 -56,799	 1,635	 -43,594	 294,000
55,799	 -56,742	 1,635	 -43,545	 297,000
55,833	 -56,675	 1,635	 -43,505	 300,000
55,821	 -56,616	 1,635	 -43,454	 303,000
55,847	 -56,556	 1,636	 -43,410	 306,000
55,879	 -56,495	 1,635	 -43,363	 309,000
55,887	 -56,440	 1,635	 -43,314	 312,000
55,941	 -56,379	 1,635	 -43,262	 315,000
55,927	 -56,310	 1,635	 -43,224	 318,000
55,938	 -56,256	 1,635	 -43,175	 321,000
55,889	 -56,194	 1,636	 -43,135	 324,000
55,994	 -56,135	 1,635	 -43,084	 327,000
56,005	 -56,077	 1,635	 -43,034	 330,000
55,999	 -56,011	 1,636	 -42,989	 333,000
55,926	 -55,959	 1,635	 -42,945	 336,000
56,068	 -55,897	 1,635	 -42,904	 339,000
56,055	 -55,832	 1,635	 -42,855	 342,000
56,027	 -55,771	 1,635	 -42,809	 345,000
56,066	 -55,715	 1,635	 -42,766	 348,000
56,066	 -55,651	 1,635	 -42,719	 351,000
56,069	 -55,592	 1,636	 -42,667	 354,000
56,066	 -55,531	 1,635	 -42,628	 357,000
56,080	 -55,475	 1,636	 -42,568	 360,000
56,069	 -55,412	 1,636	 -42,534	 363,000
56,091	 -55,357	 1,636	 -42,484	 366,000
56,090	 -55,293	 1,635	 -42,443	 369,000
56,100	 -55,236	 1,635	 -42,388	 372,000
56,091	 -55,172	 1,635	 -42,345	 375,000
56,087	 -55,116	 1,635	 -42,301	 378,000
56,067	 -55,052	 1,635	 -42,255	 381,000
56,097	 -54,996	 1,635	 -42,212	 384,000
56,103	 -54,932	 1,635	 -42,167	 387,000
56,016	 -54,882	 1,636	 -42,119	 390,000
56,097	 -54,817	 1,635	 -42,069	 393,000
56,079	 -54,757	 1,635	 -42,025	 396,000
56,056	 -54,693	 1,635	 -41,981	 399,000
56,034	 -54,632	 1,635	 -41,928	 402,000
56,040	 -54,575	 1,635	 -41,889	 405,000
56,045	 -54,510	 1,635	 -41,839	 408,000
55,998	 -54,451	 1,635	 -41,799	 411,000
55,996	 -54,391	 1,635	 -41,747	 414,000
55,948	 -54,329	 1,636	 -41,704	 417,000
55,974	 -54,273	 1,635	 -41,657	 420,000
55,923	 -54,211	 1,635	 -41,607	 423,000
55,938	 -54,152	 1,635	 -41,564	 426,000
55,923	 -54,088	 1,636	 -41,518	 429,000
55,883	 -54,032	 1,636	 -41,470	 432,000
55,859	 -53,969	 1,635	 -41,429	 435,000
55,869	 -53,922	 1,635	 -41,379	 438,000
55,833	 -53,856	 1,635	 -41,333	 441,000
55,757	 -53,791	 1,635	 -41,282	 444,000
55,724	 -53,731	 1,635	 -41,240	 447,000
55,670	 -53,671	 1,635	 -41,193	 450,000
55,597	 -53,607	 1,636	 -41,146	 453,000
55,590	 -53,553	 1,636	 -41,102	 456,000
55,375	 -53,489	 1,636	 -41,056	 459,000
55,508	 -53,437	 1,636	 -41,011	 462,000
55,414	 -53,370	 1,635	 -40,964	 465,000
55,307	 -53,313	 1,635	 -40,921	 468,000
55,269	 -53,246	 1,635	 -40,872	 471,000
55,179	 -53,194	 1,635	 -40,829	 474,000
55,136	 -53,131	 1,635	 -40,781	 477,000
54,978	 -53,070	 1,635	 -40,736	 480,000
54,930	 -53,009	 1,636	 -40,688	 483,000
54,818	 -52,951	 1,635	 -40,641	 486,000
54,614	 -52,893	 1,636	 -40,590	 489,000
54,584	 -52,826	 1,635	 -40,544	 492,000
54,447	 -52,768	 1,635	 -40,502	 495,000
54,326	 -52,705	 1,635	 -40,457	 498,000
54,193	 -52,644	 1,635	 -40,409	 501,000
54,023	 -52,592	 1,635	 -40,363	 504,000
53,821	 -52,528	 1,635	 -40,322	 507,000
53,685	 -52,467	 1,636	 -40,270	 510,000
53,521	 -52,405	 1,635	 -40,235	 513,000
53,356	 -52,349	 1,636	 -40,178	 516,000
53,170	 -52,285	 1,635	 -40,135	 519,000
52,990	 -52,227	 1,636	 -40,087	 522,000
52,764	 -52,166	 1,635	 -40,042	 525,000
52,573	 -52,105	 1,636	 -39,995	 528,000
52,354	 -52,048	 1,635	 -39,950	 531,000
52,046	 -51,986	 1,635	 -39,902	 534,000
51,857	 -51,920	 1,636	 -39,853	 537,000
51,387	 -51,868	 1,635	 -39,811	 540,000
51,402	 -51,810	 1,635	 -39,766	 543,000
50,919	 -51,747	 1,635	 -39,722	 546,000
50,540	 -51,690	 1,635	 -39,674	 549,000
50,452	 -51,624	 1,635	 -39,624	 552,000
49,986	 -51,565	 1,635	 -39,577	 555,000
49,667	 -51,504	 1,636	 -39,533	 558,000
49,297	 -51,442	 1,635	 -39,485	 561,000
48,827	 -51,381	 1,635	 -39,440	 564,000
-0,003	 -51,267	 1,646	 -39,391	 567,000
-0,003	 -51,249	 1,646	 -39,380	 568,000