Folder: stt-plotter/examples (part 2)

File: data_example_3.txt
WORKSHOP 3 EXPORTED DATA: [C:\Documents and Settings\Administrator\Pulpit\Rozciaganie\w4_2.W01 - 1]
*************************************************************************************************
Source of data: ScriptPl
WS3 File Version: 1,05
Number of bytes in subfile: 9027
Total number of data points: 426
Test date: 30-01-2018
Test time: 16:15:10
Player Step: 1
Step Capture No: 1
Actuator: 1
*************************************************************************************************
Actuator: 1  Channel:0	 Actuator: 1  Channel:1	 Actuator: 1  Channel:2	 Actuator: 1  Channel:3	 Actuator: 1  Channel:4
Load (kN)	 Stroke (mm)	 Extension (mm)	 Command (%)	 Time (s)
0,339	 -60,475	 -1,333	 -46,475	 0,000
1,201	 -60,446	 -1,339	 -46,443	 2,000
2,611	 -60,405	 -1,343	 -46,410	 4,000
4,362	 -60,370	 -1,346	 -46,382	 6,000
6,218	 -60,331	 -1,349	 -46,347	 8,000
8,169	 -60,291	 -1,348	 -46,317	 10,000
10,275	 -60,251	 -1,345	 -46,286	 12,000
12,356	 -60,218	 -1,341	 -46,256	 14,000
14,588	 -60,180	 -1,337	 -46,228	 16,000
16,873	 -60,142	 -1,333	 -46,197	 18,000
19,064	 -60,104	 -1,327	 -46,170	 20,000
21,239	 -60,068	 -1,321	 -46,139	 22,000
23,503	 -60,031	 -1,312	 -46,103	 24,000
25,984	 -59,988	 -1,304	 -46,073	 26,000
28,025	 -59,953	 -1,299	 -46,046	 28,000
30,023	 -59,921	 -1,285	 -46,015	 30,000
32,162	 -59,883	 -1,285	 -45,985	 32,000
34,035	 -59,847	 -1,279	 -45,954	 34,000
35,522	 -59,809	 -1,265	 -45,921	 36,000
36,341	 -59,766	 -1,243	 -45,890	 38,000
36,970	 -59,727	 -1,216	 -45,860	 40,000
37,266	 -59,692	 -1,188	 -45,830	 42,000
37,583	 -59,651	 -1,156	 -45,801	 44,000
37,892	 -59,608	 -1,126	 -45,772	 46,000
38,149	 -59,571	 -1,096	 -45,739	 48,000
38,440	 -59,527	 -1,063	 -45,702	 50,000
38,786	 -59,487	 -1,031	 -45,675	 52,000
39,066	 -59,447	 -1,001	 -45,647	 54,000
39,277	 -59,414	 -0,968	 -45,616	 56,000
39,589	 -59,372	 -0,935	 -45,583	 58,000
39,894	 -59,330	 -0,901	 -45,552	 60,000
40,104	 -59,288	 -0,866	 -45,519	 62,000
40,469	 -59,254	 -0,836	 -45,490	 64,000
40,699	 -59,214	 -0,801	 -45,452	 66,000
41,000	 -59,170	 -0,765	 -45,431	 68,000
41,239	 -59,135	 -0,733	 -45,398	 70,000
41,497	 -59,094	 -0,698	 -45,364	 72,000
41,743	 -59,052	 -0,664	 -45,336	 74,000
41,933	 -59,013	 -0,628	 -45,310	 76,000
42,219	 -58,974	 -0,594	 -45,276	 78,000
42,473	 -58,935	 -0,559	 -45,246	 80,000
42,595	 -58,895	 -0,525	 -45,215	 82,000
42,864	 -58,850	 -0,485	 -45,184	 84,000
42,990	 -58,813	 -0,453	 -45,154	 86,000
43,281	 -58,777	 -0,419	 -45,123	 88,000
43,452	 -58,734	 -0,385	 -45,093	 90,000
43,678	 -58,693	 -0,347	 -45,061	 92,000
43,788	 -58,654	 -0,312	 -45,027	 94,000
44,002	 -58,614	 -0,276	 -44,998	 96,000
44,190	 -58,577	 -0,242	 -44,968	 98,000
44,328	 -58,536	 -0,205	 -44,937	 100,000
44,506	 -58,496	 -0,166	 -44,905	 102,000
44,633	 -58,459	 -0,131	 -44,876	 104,000
44,847	 -58,417	 -0,094	 -44,841	 106,000
44,926	 -58,376	 -0,058	 -44,820	 108,000
45,126	 -58,337	 -0,016	 -44,786	 110,000
45,237	 -58,298	 0,022	 -44,749	 112,000
45,503	 -58,256	 0,061	 -44,722	 114,000
45,511	 -58,214	 0,106	 -44,691	 116,000
45,631	 -58,179	 0,143	 -44,661	 118,000
45,777	 -58,140	 0,181	 -44,633	 120,000
45,954	 -58,098	 0,221	 -44,602	 122,000
46,023	 -58,058	 0,264	 -44,572	 124,000
46,147	 -58,017	 0,305	 -44,542	 126,000
46,343	 -57,975	 0,348	 -44,503	 128,000
46,343	 -57,938	 0,393	 -44,475	 130,000
46,446	 -57,904	 0,432	 -44,446	 132,000
46,605	 -57,858	 0,474	 -44,416	 134,000
46,728	 -57,817	 0,517	 -44,384	 136,000
46,789	 -57,770	 0,570	 -44,351	 138,000
46,816	 -57,739	 0,610	 -44,320	 140,000
46,989	 -57,700	 0,649	 -44,286	 142,000
47,069	 -57,661	 0,694	 -44,258	 144,000
47,211	 -57,615	 1,831	 -44,229	 146,000
47,220	 -57,573	 1,873	 -44,201	 148,000
47,302	 -57,537	 1,908	 -44,167	 150,000
47,434	 -57,503	 0,112	 -44,138	 152,000
47,480	 -57,461	 -1,044	 -44,106	 154,000
47,586	 -57,422	 0,008	 -44,080	 156,000
47,641	 -57,380	 0,008	 -44,045	 158,000
47,705	 -57,341	 0,008	 -44,017	 160,000
47,801	 -57,299	 0,009	 -43,987	 162,000
47,834	 -57,263	 0,000	 -43,957	 164,000
47,963	 -57,221	 0,003	 -43,926	 166,000
48,001	 -57,177	 0,003	 -43,892	 168,000
48,047	 -57,137	 0,004	 -43,861	 170,000
48,101	 -57,098	 0,004	 -43,832	 172,000
48,213	 -57,057	 0,004	 -43,803	 174,000
48,261	 -57,017	 0,004	 -43,774	 176,000
48,294	 -56,982	 0,004	 -43,740	 178,000
48,373	 -56,940	 0,005	 -43,706	 180,000
48,390	 -56,901	 0,005	 -43,682	 182,000
48,523	 -56,863	 0,005	 -43,646	 184,000
48,529	 -56,816	 0,005	 -43,618	 186,000
48,555	 -56,778	 0,005	 -43,585	 188,000
48,599	 -56,736	 0,005	 -43,551	 190,000
48,672	 -56,700	 0,005	 -43,519	 192,000
48,754	 -56,658	 0,005	 -43,493	 194,000
48,785	 -56,616	 0,005	 -43,461	 196,000
48,808	 -56,580	 0,005	 -43,428	 198,000
48,838	 -56,537	 0,005	 -43,398	 200,000
48,901	 -56,503	 0,005	 -43,372	 202,000
48,939	 -56,461	 0,005	 -43,338	 204,000
49,006	 -56,418	 0,005	 -43,311	 206,000
49,026	 -56,380	 0,005	 -43,281	 208,000
49,046	 -56,337	 0,005	 -43,248	 210,000
49,088	 -56,299	 0,005	 -43,223	 212,000
49,133	 -56,260	 0,005	 -43,189	 214,000
49,150	 -56,221	 0,005	 -43,157	 216,000
49,194	 -56,181	 0,005	 -43,123	 218,000
49,223	 -56,140	 0,005	 -43,091	 220,000
49,262	 -56,100	 0,005	 -43,062	 222,000
49,295	 -56,059	 0,005	 -43,030	 224,000
49,316	 -56,017	 0,005	 -42,999	 226,000
49,354	 -55,982	 0,005	 -42,968	 228,000
49,402	 -55,940	 0,005	 -42,941	 230,000
49,407	 -55,900	 0,005	 -42,912	 232,000
49,429	 -55,859	 0,005	 -42,880	 234,000
49,464	 -55,821	 0,005	 -42,849	 236,000
49,475	 -55,779	 0,005	 -42,827	 238,000
49,497	 -55,743	 0,005	 -42,787	 240,000
49,574	 -55,696	 0,005	 -42,758	 242,000
49,557	 -55,652	 0,005	 -42,727	 244,000
49,558	 -55,615	 0,005	 -42,693	 246,000
49,583	 -55,576	 0,005	 -42,668	 248,000
49,613	 -55,538	 0,005	 -42,636	 250,000
49,624	 -55,503	 0,005	 -42,603	 252,000
49,654	 -55,459	 0,005	 -42,572	 254,000
49,684	 -55,420	 0,005	 -42,534	 256,000
49,697	 -55,378	 0,005	 -42,508	 258,000
49,700	 -55,341	 0,005	 -42,478	 260,000
49,716	 -55,298	 0,005	 -42,443	 262,000
49,783	 -55,264	 0,005	 -42,414	 264,000
49,781	 -55,215	 0,005	 -42,384	 266,000
49,773	 -55,173	 0,005	 -42,355	 268,000
49,774	 -55,137	 0,005	 -42,322	 270,000
49,764	 -55,097	 0,005	 -42,291	 272,000
49,792	 -55,060	 0,005	 -42,264	 274,000
49,822	 -55,023	 0,005	 -42,231	 276,000
49,833	 -54,979	 0,005	 -42,200	 278,000
49,824	 -54,936	 0,005	 -42,170	 280,000
49,840	 -54,898	 0,005	 -42,141	 282,000
49,865	 -54,859	 0,005	 -42,112	 284,000
49,859	 -54,820	 0,004	 -42,081	 286,000
49,854	 -54,783	 0,005	 -42,049	 288,000
49,885	 -54,739	 0,005	 -42,019	 290,000
49,882	 -54,706	 0,005	 -41,987	 292,000
49,894	 -54,665	 0,005	 -41,959	 294,000
49,898	 -54,617	 0,005	 -41,926	 296,000
49,877	 -54,581	 0,005	 -41,899	 298,000
49,868	 -54,539	 0,005	 -41,864	 300,000
49,901	 -54,501	 0,005	 -41,834	 302,000
49,909	 -54,457	 0,005	 -41,805	 304,000
49,885	 -54,415	 0,005	 -41,774	 306,000
49,879	 -54,377	 0,005	 -41,742	 308,000
49,890	 -54,334	 0,005	 -41,708	 310,000
49,880	 -54,297	 0,005	 -41,685	 312,000
49,874	 -54,259	 0,005	 -41,650	 314,000
49,880	 -54,218	 0,005	 -41,617	 316,000
49,876	 -54,178	 0,005	 -41,585	 318,000
49,842	 -54,137	 0,005	 -41,554	 320,000
49,828	 -54,098	 0,005	 -41,525	 322,000
49,839	 -54,056	 0,005	 -41,492	 324,000
49,839	 -54,016	 0,005	 -41,464	 326,000
49,786	 -53,973	 0,005	 -41,435	 328,000
49,776	 -53,933	 0,005	 -41,404	 330,000
49,776	 -53,893	 0,005	 -41,377	 332,000
49,753	 -53,852	 0,005	 -41,341	 334,000
49,725	 -53,810	 0,005	 -41,312	 336,000
49,710	 -53,771	 0,005	 -41,283	 338,000
49,673	 -53,728	 0,005	 -41,254	 340,000
49,646	 -53,687	 0,005	 -41,220	 342,000
49,624	 -53,651	 0,005	 -41,184	 344,000
49,580	 -53,611	 0,004	 -41,157	 346,000
49,543	 -53,567	 0,005	 -41,124	 348,000
49,517	 -53,526	 0,005	 -41,094	 350,000
49,495	 -53,482	 0,005	 -41,058	 352,000
49,434	 -53,444	 0,005	 -41,030	 354,000
49,403	 -53,405	 0,004	 -41,004	 356,000
49,354	 -53,363	 0,005	 -40,970	 358,000
49,302	 -53,326	 0,005	 -40,946	 360,000
49,254	 -53,283	 0,005	 -40,913	 362,000
49,183	 -53,246	 0,005	 -40,883	 364,000
49,181	 -53,208	 0,005	 -40,851	 366,000
49,142	 -53,162	 0,005	 -40,820	 368,000
49,013	 -53,124	 0,005	 -40,789	 370,000
48,982	 -53,085	 0,005	 -40,762	 372,000
48,877	 -53,045	 0,005	 -40,728	 374,000
48,861	 -53,007	 0,005	 -40,698	 376,000
48,754	 -52,965	 0,005	 -40,667	 378,000
48,687	 -52,924	 0,005	 -40,634	 380,000
48,547	 -52,884	 0,005	 -40,603	 382,000
48,525	 -52,845	 0,005	 -40,574	 384,000
48,476	 -52,808	 0,005	 -40,542	 386,000
48,293	 -52,764	 0,005	 -40,511	 388,000
48,246	 -52,730	 0,004	 -40,477	 390,000
48,225	 -52,690	 0,005	 -40,447	 392,000
48,107	 -52,640	 0,005	 -40,415	 394,000
47,881	 -52,603	 0,005	 -40,388	 396,000
47,881	 -52,565	 0,005	 -40,352	 398,000
47,779	 -52,525	 0,005	 -40,333	 400,000
47,555	 -52,487	 0,005	 -40,296	 402,000
47,584	 -52,453	 0,005	 -40,265	 404,000
47,424	 -52,400	 0,005	 -40,238	 406,000
47,182	 -52,363	 0,005	 -40,201	 408,000
47,120	 -52,317	 0,005	 -40,176	 410,000
46,940	 -52,289	 0,005	 -40,145	 412,000
46,881	 -52,243	 0,005	 -40,112	 414,000
46,517	 -52,201	 0,005	 -40,081	 416,000
46,441	 -52,165	 0,005	 -40,051	 418,000
46,213	 -52,129	 0,005	 -40,021	 420,000
0,010	 -52,040	 0,011	 -39,990	 422,000
0,005	 -52,004	 0,011	 -39,959	 424,000
0,008	 -51,981	 0,011	 -39,943	 425,000

File: data_example_4.txt
WORKSHOP 3 EXPORTED DATA: [C:\Documents and Settings\Administrator\Pulpit\Rozciaganie\w5_1_1.W01 - 1]
*************************************************************************************************
Source of data: ScriptPl
WS3 File Version: 1,05
Number of bytes in subfile: 14187
Total number of data points: 684
Test date: 30-01-2018
Test time: 15:53:05
Player Step: 1
Step Capture No: 1
Actuator: 1
*************************************************************************************************
Actuator: 1  Channel:0	 Actuator: 1  Channel:1	 Actuator: 1  Channel:2	 Actuator: 1  Channel:3	 Actuator: 1  Channel:4
Load (kN)	 Stroke (mm)	 Extension (mm)	 Command (%)	 Time (s)
0,200	 -50,577	 0,000	 -38,869	 0,000
0,446	 -50,537	 0,000	 -38,850	 3,000
0,444	 -50,510	 0,000	 -38,822	 6,000
0,445	 -50,480	 0,000	 -38,802	 9,000
0,444	 -50,449	 0,000	 -38,779	 12,000
0,446	 -50,421	 0,000	 -38,755	 15,000
0,449	 -50,392	 0,000	 -38,730	 18,000
0,446	 -50,361	 0,000	 -38,707	 21,000
0,446	 -50,334	 0,000	 -38,686	 24,000
0,446	 -50,301	 0,000	 -38,657	 27,000
0,447	 -50,268	 0,000	 -38,633	 30,000
0,446	 -50,248	 0,000	 -38,611	 33,000
0,448	 -50,213	 0,000	 -38,583	 36,000
0,446	 -50,182	 0,000	 -38,560	 39,000
0,448	 -50,155	 0,000	 -38,541	 42,000
0,451	 -50,121	 0,000	 -38,519	 45,000
0,450	 -50,086	 0,000	 -38,494	 48,000
0,448	 -50,062	 0,000	 -38,475	 51,000
0,449	 -50,030	 0,000	 -38,449	 54,000
0,452	 -50,003	 0,000	 -38,425	 57,000
0,453	 -49,970	 0,000	 -38,404	 60,000
0,451	 -49,939	 0,000	 -38,381	 63,000
0,453	 -49,908	 0,000	 -38,360	 66,000
0,457	 -49,880	 0,000	 -38,337	 69,000
0,452	 -49,848	 0,000	 -38,313	 72,000
0,455	 -49,824	 0,000	 -38,293	 75,000
0,453	 -49,799	 0,000	 -38,267	 78,000
0,457	 -49,762	 0,000	 -38,243	 81,000
0,460	 -49,731	 0,000	 -38,221	 84,000
0,457	 -49,697	 0,000	 -38,198	 87,000
0,463	 -49,671	 0,000	 -38,178	 90,000
0,460	 -49,639	 0,000	 -38,152	 93,000
0,462	 -49,609	 0,000	 -38,133	 96,000
0,460	 -49,580	 0,000	 -38,105	 99,000
0,457	 -49,551	 0,000	 -38,081	 102,000
0,463	 -49,516	 0,000	 -38,061	 105,000
0,470	 -49,484	 0,000	 -38,039	 108,000
0,477	 -49,454	 0,000	 -38,014	 111,000
0,476	 -49,426	 0,000	 -37,989	 114,000
0,477	 -49,397	 0,000	 -37,967	 117,000
0,477	 -49,368	 0,000	 -37,945	 120,000
0,477	 -49,336	 0,000	 -37,921	 123,000
0,479	 -49,303	 0,000	 -37,899	 126,000
0,481	 -49,277	 0,000	 -37,876	 129,000
0,486	 -49,245	 0,000	 -37,851	 132,000
0,488	 -49,217	 0,000	 -37,830	 135,000
0,489	 -49,189	 0,000	 -37,807	 138,000
0,490	 -49,159	 0,000	 -37,785	 141,000
0,494	 -49,125	 0,000	 -37,762	 144,000
0,495	 -49,095	 0,000	 -37,741	 147,000
0,504	 -49,066	 0,000	 -37,715	 150,000
0,529	 -49,037	 0,000	 -37,692	 153,000
0,523	 -49,005	 0,000	 -37,668	 156,000
0,530	 -48,978	 0,000	 -37,644	 159,000
0,562	 -48,950	 0,000	 -37,620	 162,000
0,548	 -48,916	 0,000	 -37,594	 165,000
0,685	 -48,891	 0,000	 -37,573	 168,000
0,985	 -48,867	 0,000	 -37,554	 171,000
1,603	 -48,839	 0,000	 -37,529	 174,000
2,491	 -48,807	 0,000	 -37,508	 177,000
3,577	 -48,782	 0,000	 -37,485	 180,000
4,749	 -48,752	 0,000	 -37,461	 183,000
6,065	 -48,724	 0,000	 -37,439	 186,000
7,383	 -48,696	 0,000	 -37,417	 189,000
8,730	 -48,666	 0,000	 -37,391	 192,000
10,129	 -48,639	 0,000	 -37,369	 195,000
11,562	 -48,608	 0,000	 -37,342	 198,000
13,036	 -48,578	 0,000	 -37,317	 201,000
14,578	 -48,549	 0,000	 -37,297	 204,000
16,024	 -48,521	 0,000	 -37,275	 207,000
17,551	 -48,494	 0,000	 -37,253	 210,000
19,036	 -48,462	 0,000	 -37,230	 213,000
20,635	 -48,437	 0,000	 -37,208	 216,000
22,164	 -48,404	 0,000	 -37,182	 219,000
23,636	 -48,381	 0,000	 -37,158	 222,000
25,130	 -48,348	 0,000	 -37,134	 225,000
26,572	 -48,325	 0,000	 -37,112	 228,000
28,100	 -48,293	 0,000	 -37,092	 231,000
29,535	 -48,263	 0,000	 -37,067	 234,000
31,005	 -48,238	 0,000	 -37,046	 237,000
32,428	 -48,209	 0,000	 -37,024	 240,000
33,912	 -48,179	 0,000	 -37,000	 243,000
35,333	 -48,152	 0,000	 -36,978	 246,000
36,773	 -48,123	 0,000	 -36,952	 249,000
38,226	 -48,096	 0,000	 -36,931	 252,000
39,699	 -48,068	 0,000	 -36,911	 255,000
41,060	 -48,039	 0,001	 -36,887	 258,000
42,560	 -48,008	 0,000	 -36,864	 261,000
43,920	 -47,980	 0,000	 -36,840	 264,000
45,268	 -47,954	 0,000	 -36,819	 267,000
46,589	 -47,924	 0,000	 -36,799	 270,000
47,869	 -47,896	 0,000	 -36,773	 273,000
48,999	 -47,866	 0,000	 -36,753	 276,000
49,859	 -47,840	 0,000	 -36,724	 279,000
50,479	 -47,806	 0,000	 -36,693	 282,000
50,797	 -47,780	 0,000	 -36,673	 285,000
50,958	 -47,751	 0,000	 -36,650	 288,000
51,071	 -47,716	 0,000	 -36,631	 291,000
51,077	 -47,689	 0,000	 -36,605	 294,000
51,083	 -47,659	 0,000	 -36,583	 297,000
51,069	 -47,625	 0,000	 -36,558	 300,000
51,042	 -47,597	 0,000	 -36,539	 303,000
51,004	 -47,563	 0,000	 -36,516	 306,000
50,962	 -47,539	 0,000	 -36,491	 309,000
50,957	 -47,503	 0,000	 -36,467	 312,000
50,913	 -47,476	 0,000	 -36,443	 315,000
50,902	 -47,442	 0,000	 -36,421	 318,000
50,885	 -47,410	 0,000	 -36,400	 321,000
50,870	 -47,384	 0,000	 -36,379	 324,000
50,865	 -47,352	 0,000	 -36,356	 327,000
50,857	 -47,322	 0,000	 -36,334	 330,000
50,857	 -47,287	 0,000	 -36,309	 333,000
50,834	 -47,261	 0,000	 -36,286	 336,000
50,834	 -47,234	 0,000	 -36,263	 339,000
50,831	 -47,200	 0,000	 -36,238	 342,000
50,834	 -47,173	 0,000	 -36,215	 345,000
50,828	 -47,139	 0,000	 -36,190	 348,000
50,825	 -47,111	 0,000	 -36,170	 351,000
50,825	 -47,079	 0,000	 -36,146	 354,000
50,833	 -47,046	 0,000	 -36,125	 357,000
50,825	 -47,020	 0,000	 -36,098	 360,000
50,825	 -46,989	 0,000	 -36,078	 363,000
50,828	 -46,959	 0,000	 -36,055	 366,000
50,835	 -46,931	 0,000	 -36,032	 369,000
50,839	 -46,900	 0,001	 -36,008	 372,000
50,838	 -46,871	 0,000	 -35,984	 375,000
50,842	 -46,842	 0,000	 -35,962	 378,000
50,835	 -46,811	 0,000	 -35,939	 381,000
50,845	 -46,777	 0,000	 -35,920	 384,000
50,852	 -46,753	 0,000	 -35,895	 387,000
50,845	 -46,722	 0,000	 -35,869	 390,000
50,838	 -46,692	 0,000	 -35,850	 393,000
50,844	 -46,662	 0,000	 -35,822	 396,000
50,847	 -46,633	 0,000	 -35,802	 399,000
50,856	 -46,603	 0,001	 -35,777	 402,000
50,848	 -46,569	 0,000	 -35,754	 405,000
50,846	 -46,545	 0,000	 -35,729	 408,000
50,852	 -46,511	 0,000	 -35,704	 411,000
50,853	 -46,483	 0,001	 -35,686	 414,000
50,846	 -46,450	 0,001	 -35,663	 417,000
50,851	 -46,421	 0,000	 -35,639	 420,000
50,854	 -46,390	 0,000	 -35,616	 423,000
50,845	 -46,362	 0,000	 -35,594	 426,000
50,844	 -46,327	 0,001	 -35,574	 429,000
50,833	 -46,302	 0,001	 -35,551	 432,000
50,841	 -46,268	 0,001	 -35,524	 435,000
50,841	 -46,237	 0,001	 -35,501	 438,000
50,848	 -46,214	 0,000	 -35,480	 441,000
50,839	 -46,179	 0,000	 -35,456	 444,000
50,834	 -46,148	 0,001	 -35,436	 447,000
50,821	 -46,121	 0,001	 -35,410	 450,000
50,828	 -46,086	 0,000	 -35,385	 453,000
50,828	 -46,058	 0,001	 -35,360	 456,000
50,828	 -46,030	 0,000	 -35,342	 459,000
50,819	 -45,999	 0,000	 -35,315	 462,000
50,803	 -45,968	 0,000	 -35,293	 465,000
50,798	 -45,939	 0,000	 -35,270	 468,000
50,788	 -45,905	 0,000	 -35,247	 471,000
50,762	 -45,878	 0,000	 -35,227	 474,000
50,792	 -45,848	 0,000	 -35,201	 477,000
50,777	 -45,822	 0,001	 -35,179	 480,000
50,757	 -45,787	 0,001	 -35,153	 483,000
50,749	 -45,760	 0,001	 -35,129	 486,000
50,727	 -45,730	 0,000	 -35,110	 489,000
50,757	 -45,700	 0,001	 -35,088	 492,000
50,729	 -45,672	 0,000	 -35,064	 495,000
50,699	 -45,636	 0,000	 -35,042	 498,000
50,655	 -45,612	 0,001	 -35,020	 501,000
50,698	 -45,578	 0,001	 -34,995	 504,000
50,657	 -45,554	 0,000	 -34,975	 507,000
50,643	 -45,524	 0,001	 -34,952	 510,000
50,628	 -45,497	 0,000	 -34,927	 513,000
50,614	 -45,465	 0,001	 -34,902	 516,000
50,622	 -45,436	 0,001	 -34,879	 519,000
50,591	 -45,407	 0,001	 -34,862	 522,000
50,569	 -45,377	 0,000	 -34,836	 525,000
50,523	 -45,347	 0,001	 -34,813	 528,000
50,529	 -45,323	 0,000	 -34,791	 531,000
50,525	 -45,286	 0,001	 -34,766	 534,000
50,478	 -45,259	 0,001	 -34,737	 537,000
50,440	 -45,227	 0,000	 -34,715	 540,000
50,429	 -45,195	 0,000	 -34,696	 543,000
50,394	 -45,167	 0,000	 -34,670	 546,000
50,348	 -45,137	 0,001	 -34,643	 549,000
50,343	 -45,111	 0,001	 -34,623	 552,000
50,314	 -45,076	 0,001	 -34,597	 555,000
50,275	 -45,044	 0,001	 -34,577	 558,000
50,220	 -45,014	 0,000	 -34,556	 561,000
50,188	 -44,989	 0,001	 -34,532	 564,000
50,152	 -44,954	 0,000	 -34,505	 567,000
50,117	 -44,921	 0,001	 -34,488	 570,000
50,070	 -44,893	 0,001	 -34,463	 573,000
50,015	 -44,863	 0,001	 -34,441	 576,000
49,993	 -44,829	 0,001	 -34,422	 579,000
49,938	 -44,801	 0,001	 -34,394	 582,000
49,878	 -44,769	 0,001	 -34,371	 585,000
49,823	 -44,738	 0,001	 -34,350	 588,000
49,774	 -44,705	 0,001	 -34,327	 591,000
49,725	 -44,678	 0,001	 -34,301	 594,000
49,687	 -44,645	 0,001	 -34,279	 597,000
49,598	 -44,615	 0,001	 -34,256	 600,000
49,573	 -44,584	 0,001	 -34,233	 603,000
49,476	 -44,553	 0,001	 -34,212	 606,000
49,421	 -44,520	 0,000	 -34,191	 609,000
49,362	 -44,492	 0,001	 -34,162	 612,000
49,309	 -44,462	 0,001	 -34,143	 615,000
49,208	 -44,431	 0,001	 -34,118	 618,000
49,161	 -44,402	 0,001	 -34,098	 621,000
49,075	 -44,372	 0,001	 -34,071	 624,000
49,026	 -44,341	 0,001	 -34,045	 627,000
48,932	 -44,311	 0,002	 -34,025	 630,000
48,851	 -44,284	 0,001	 -34,003	 633,000
48,796	 -44,252	 0,000	 -33,980	 636,000
48,683	 -44,223	 0,000	 -33,957	 639,000
48,612	 -44,196	 0,001	 -33,935	 642,000
48,501	 -44,165	 0,001	 -33,913	 645,000
48,434	 -44,131	 0,001	 -33,889	 648,000
48,325	 -44,102	 0,001	 -33,868	 651,000
48,237	 -44,073	 0,001	 -33,846	 654,000
48,132	 -44,046	 0,001	 -33,821	 657,000
48,076	 -44,011	 0,001	 -33,798	 660,000
47,919	 -43,979	 0,001	 -33,769	 663,000
47,750	 -43,950	 0,001	 -33,747	 666,000
47,657	 -43,920	 0,001	 -33,729	 669,000
47,506	 -43,891	 0,001	 -33,703	 672,000
47,321	 -43,861	 0,001	 -33,681	 675,000
0,452	 -43,798	 0,005	 -33,655	 678,000
0,453	 -43,772	 0,006	 -33,638	 681,000
0,457	 -43,748	 0,005	 -33,616	 683,000