Folder: stt-plotter/examples (part 3)

File: data_example_5.txt
WORKSHOP 3 EXPORTED DATA: [C:\Documents and Settings\Administrator\Pulpit\Rozciaganie\w5_1_3.W01 - 1]
*************************************************************************************************
Source of data: ScriptPl
WS3 File Version: 1,05
Number of bytes in subfile: 8267
Total number of data points: 388
Test date: 30-01-2018
Test time: 16:31:52
Player Step: 1
Step Capture No: 1
Actuator: 1
*************************************************************************************************
Actuator: 1  Channel:0	 Actuator: 1  Channel:1	 Actuator: 1  Channel:2	 Actuator: 1  Channel:3	 Actuator: 1  Channel:4
Load (kN)	 Stroke (mm)	 Extension (mm)	 Command (%)	 Time (s)
0,587	 -61,044	 -0,001	 -46,909	 0,000
1,231	 -61,002	 -0,016	 -46,878	 2,000
1,881	 -60,967	 -0,037	 -46,851	 4,000
2,813	 -60,923	 -0,056	 -46,822	 6,000
3,864	 -60,890	 -0,068	 -46,791	 8,000
5,048	 -60,846	 -0,068	 -46,762	 10,000
6,187	 -60,808	 -0,066	 -46,727	 12,000
7,544	 -60,772	 -0,064	 -46,697	 14,000
8,952	 -60,735	 -0,060	 -46,669	 16,000
10,454	 -60,698	 -0,057	 -46,636	 18,000
11,978	 -60,659	 -0,050	 -46,607	 20,000
13,714	 -60,616	 -0,047	 -46,574	 22,000
15,719	 -60,581	 -0,043	 -46,541	 24,000
17,597	 -60,547	 -0,037	 -46,513	 26,000
19,602	 -60,505	 -0,029	 -46,478	 28,000
21,502	 -60,467	 -0,021	 -46,448	 30,000
23,363	 -60,433	 -0,010	 -46,418	 32,000
25,052	 -60,396	 0,000	 -46,387	 34,000
26,703	 -60,357	 0,011	 -46,358	 36,000
28,241	 -60,321	 0,024	 -46,325	 38,000
29,725	 -60,280	 0,037	 -46,296	 40,000
31,058	 -60,240	 0,051	 -46,267	 42,000
32,265	 -60,201	 0,069	 -46,230	 44,000
33,442	 -60,168	 0,086	 -46,202	 46,000
34,638	 -60,127	 0,105	 -46,175	 48,000
35,570	 -60,083	 0,126	 -46,140	 50,000
36,510	 -60,050	 0,147	 -46,107	 52,000
37,286	 -60,014	 0,168	 -46,083	 54,000
38,132	 -59,972	 0,191	 -46,056	 56,000
38,837	 -59,935	 0,215	 -46,020	 58,000
39,584	 -59,897	 0,240	 -45,989	 60,000
40,166	 -59,855	 0,264	 -45,960	 62,000
40,816	 -59,816	 0,291	 -45,930	 64,000
41,378	 -59,774	 0,318	 -45,890	 66,000
41,921	 -59,740	 0,345	 -45,864	 68,000
42,493	 -59,699	 0,372	 -45,837	 70,000
42,998	 -59,659	 0,403	 -45,804	 72,000
43,459	 -59,621	 0,433	 -45,772	 74,000
43,967	 -59,583	 0,465	 -45,742	 76,000
44,437	 -59,541	 0,498	 -45,712	 78,000
44,774	 -59,502	 0,531	 -45,684	 80,000
45,228	 -59,464	 0,565	 -45,651	 82,000
45,567	 -59,423	 0,601	 -45,620	 84,000
46,013	 -59,381	 0,634	 -45,592	 86,000
46,357	 -59,341	 0,670	 -45,563	 88,000
46,667	 -59,304	 0,706	 -45,533	 90,000
47,000	 -59,266	 0,744	 -45,495	 92,000
47,385	 -59,226	 0,781	 -45,465	 94,000
47,666	 -59,183	 0,820	 -45,438	 96,000
48,032	 -59,149	 0,855	 -45,402	 98,000
48,306	 -59,109	 0,894	 -45,374	 100,000
48,565	 -59,062	 0,934	 -45,343	 102,000
48,939	 -59,027	 0,970	 -45,314	 104,000
49,215	 -58,988	 1,009	 -45,283	 106,000
49,353	 -58,946	 1,053	 -45,248	 108,000
49,741	 -58,910	 1,087	 -45,220	 110,000
49,960	 -58,869	 1,126	 -45,187	 112,000
50,139	 -58,827	 1,169	 -45,157	 114,000
50,456	 -58,788	 1,208	 -45,126	 116,000
50,654	 -58,749	 1,245	 -45,097	 118,000
50,937	 -58,710	 1,284	 -45,069	 120,000
51,035	 -58,667	 1,326	 -45,036	 122,000
51,330	 -58,630	 1,366	 -45,005	 124,000
51,451	 -58,596	 1,406	 -44,974	 126,000
51,713	 -58,552	 1,446	 -44,940	 128,000
51,862	 -58,510	 1,488	 -44,915	 130,000
52,095	 -58,471	 1,528	 -44,882	 132,000
52,335	 -58,432	 1,567	 -44,853	 134,000
52,400	 -58,390	 1,614	 -44,822	 136,000
52,605	 -58,355	 1,651	 -44,792	 138,000
52,789	 -58,313	 1,692	 -44,761	 140,000
52,998	 -58,268	 1,734	 -44,731	 142,000
53,081	 -58,235	 1,774	 -44,700	 144,000
53,243	 -58,193	 1,817	 -44,661	 146,000
53,400	 -58,151	 1,854	 -44,640	 148,000
53,605	 -58,112	 1,894	 -44,610	 150,000
53,748	 -58,069	 1,937	 -44,576	 152,000
53,840	 -58,031	 1,978	 -44,541	 154,000
54,036	 -57,996	 2,017	 -44,512	 156,000
54,131	 -57,954	 2,058	 -44,480	 158,000
54,290	 -57,910	 2,099	 -44,453	 160,000
54,399	 -57,874	 2,139	 -44,420	 162,000
54,638	 -57,827	 2,182	 -44,389	 164,000
54,595	 -57,795	 2,226	 -44,359	 166,000
54,802	 -57,753	 2,264	 -44,335	 168,000
54,898	 -57,711	 2,307	 -44,299	 170,000
54,986	 -57,672	 2,348	 -44,269	 172,000
55,133	 -57,635	 2,387	 -44,237	 174,000
55,230	 -57,593	 2,434	 -44,207	 176,000
55,298	 -57,546	 2,473	 -44,177	 178,000
55,510	 -57,512	 2,512	 -44,146	 180,000
55,552	 -57,468	 2,558	 -44,115	 182,000
55,627	 -57,432	 2,598	 -44,083	 184,000
55,838	 -57,391	 2,638	 -44,056	 186,000
55,828	 -57,351	 2,680	 -44,025	 188,000
55,902	 -57,310	 2,717	 -43,993	 190,000
56,016	 -57,276	 2,752	 -43,957	 192,000
56,146	 -57,237	 2,790	 -43,928	 194,000
56,202	 -57,194	 2,829	 -43,901	 196,000
56,305	 -57,155	 2,866	 -43,868	 198,000
56,384	 -57,109	 2,905	 -43,838	 200,000
56,470	 -57,073	 2,944	 -43,806	 202,000
56,520	 -57,033	 2,982	 -43,773	 204,000
56,617	 -57,001	 3,019	 -43,739	 206,000
56,722	 -56,952	 3,061	 -43,715	 208,000
56,757	 -56,911	 3,101	 -43,690	 210,000
56,822	 -56,873	 3,137	 -43,651	 212,000
57,031	 -56,835	 4,107	 -43,625	 214,000
57,016	 -56,792	 4,154	 -43,592	 216,000
57,035	 -56,753	 4,195	 -43,562	 218,000
57,109	 -56,711	 1,898	 -43,530	 220,000
57,189	 -56,672	 0,002	 -43,500	 222,000
57,287	 -56,637	 0,311	 -43,467	 224,000
57,358	 -56,595	 1,147	 -43,443	 226,000
57,401	 -56,553	 1,147	 -43,410	 228,000
57,449	 -56,514	 1,146	 -43,377	 230,000
57,506	 -56,478	 1,147	 -43,343	 232,000
57,583	 -56,438	 1,139	 -43,316	 234,000
57,670	 -56,396	 1,143	 -43,284	 236,000
57,692	 -56,353	 1,144	 -43,250	 238,000
57,748	 -56,320	 1,144	 -43,221	 240,000
57,844	 -56,279	 1,145	 -43,193	 242,000
57,883	 -56,235	 1,145	 -43,162	 244,000
57,916	 -56,193	 1,145	 -43,130	 246,000
57,965	 -56,154	 1,145	 -43,099	 248,000
58,019	 -56,119	 1,145	 -43,070	 250,000
58,077	 -56,073	 1,145	 -43,035	 252,000
58,164	 -56,036	 1,145	 -43,005	 254,000
58,174	 -55,994	 1,145	 -42,978	 256,000
58,211	 -55,955	 1,145	 -42,946	 258,000
58,265	 -55,915	 1,145	 -42,918	 260,000
58,306	 -55,873	 1,145	 -42,884	 262,000
58,371	 -55,841	 1,145	 -42,854	 264,000
58,455	 -55,794	 1,145	 -42,827	 266,000
58,452	 -55,750	 1,145	 -42,796	 268,000
58,475	 -55,711	 1,145	 -42,761	 270,000
58,516	 -55,673	 1,145	 -42,728	 272,000
58,553	 -55,638	 1,145	 -42,706	 274,000
58,657	 -55,597	 1,145	 -42,676	 276,000
58,673	 -55,557	 1,145	 -42,634	 278,000
58,712	 -55,516	 1,146	 -42,606	 280,000
58,728	 -55,477	 1,145	 -42,577	 282,000
58,762	 -55,436	 1,145	 -42,544	 284,000
58,794	 -55,398	 1,145	 -42,512	 286,000
58,870	 -55,359	 1,146	 -42,479	 288,000
58,878	 -55,318	 1,145	 -42,454	 290,000
58,908	 -55,274	 1,145	 -42,420	 292,000
58,922	 -55,236	 1,145	 -42,387	 294,000
58,979	 -55,200	 1,145	 -42,358	 296,000
58,999	 -55,158	 1,145	 -42,327	 298,000
59,053	 -55,117	 1,145	 -42,300	 300,000
59,087	 -55,082	 1,146	 -42,268	 302,000
59,086	 -55,042	 1,145	 -42,239	 304,000
59,113	 -54,999	 1,146	 -42,207	 306,000
59,160	 -54,959	 1,146	 -42,178	 308,000
59,224	 -54,919	 1,145	 -42,149	 310,000
59,218	 -54,877	 1,146	 -42,119	 312,000
59,194	 -54,834	 1,145	 -42,088	 314,000
59,225	 -54,800	 1,145	 -42,055	 316,000
59,329	 -54,758	 1,146	 -42,023	 318,000
59,323	 -54,717	 1,145	 -41,989	 320,000
59,306	 -54,679	 1,146	 -41,959	 322,000
59,360	 -54,641	 1,146	 -41,931	 324,000
59,372	 -54,602	 1,146	 -41,901	 326,000
59,390	 -54,560	 1,145	 -41,869	 328,000
59,432	 -54,517	 1,145	 -41,841	 330,000
59,450	 -54,476	 1,146	 -41,809	 332,000
59,432	 -54,436	 1,146	 -41,782	 334,000
59,437	 -54,395	 1,145	 -41,753	 336,000
59,476	 -54,358	 1,145	 -41,717	 338,000
59,485	 -54,320	 1,146	 -41,685	 340,000
59,517	 -54,279	 1,145	 -41,659	 342,000
59,526	 -54,236	 1,145	 -41,624	 344,000
59,495	 -54,200	 1,145	 -41,597	 346,000
59,527	 -54,159	 1,146	 -41,560	 348,000
59,568	 -54,113	 1,146	 -41,533	 350,000
59,549	 -54,077	 1,146	 -41,497	 352,000
59,525	 -54,038	 1,145	 -41,469	 354,000
59,530	 -53,996	 1,146	 -41,443	 356,000
59,528	 -53,955	 1,145	 -41,409	 358,000
59,528	 -53,916	 1,146	 -41,380	 360,000
59,508	 -53,881	 1,146	 -41,350	 362,000
59,555	 -53,838	 1,146	 -41,315	 364,000
59,492	 -53,790	 1,146	 -41,278	 366,000
59,419	 -53,753	 1,146	 -41,253	 368,000
59,410	 -53,709	 1,146	 -41,224	 370,000
-0,007	 -53,609	 1,154	 -41,195	 372,000
-0,011	 -53,568	 1,154	 -41,164	 374,000
-0,009	 -53,530	 1,153	 -41,130	 376,000
-0,007	 -53,486	 1,154	 -41,101	 378,000
-0,005	 -53,445	 1,154	 -41,073	 380,000
-0,004	 -53,408	 1,154	 -41,040	 382,000
-0,003	 -53,365	 1,154	 -41,013	 384,000
-0,005	 -53,325	 1,153	 -40,983	 386,000
-0,001	 -53,304	 1,154	 -40,966	 387,000

File: data_example_6.txt
WORKSHOP 3 EXPORTED DATA: [C:\Documents and Settings\Administrator\Pulpit\Rozciaganie\w5_1.W01 - 1]
*************************************************************************************************
Source of data: ScriptPl
WS3 File Version: 1,05
Number of bytes in subfile: 76187
Total number of data points: 3784
Test date: 30-01-2018
Test time: 15:27:15
Player Step: 1
Step Capture No: 1
Actuator: 1
*************************************************************************************************
Actuator: 1  Channel:0	 Actuator: 1  Channel:1	 Actuator: 1  Channel:2	 Actuator: 1  Channel:3	 Actuator: 1  Channel:4
Load (kN)	 Stroke (mm)	 Extension (mm)	 Command (%)	 Time (s)
1,329	 -51,667	 -0,121	 -39,709	 0,000
1,559	 -51,666	 -0,121	 -39,697	 1,600
2,053	 -51,648	 -0,119	 -39,678	 3,200
2,734	 -51,631	 -0,117	 -39,667	 4,800
3,353	 -51,616	 -0,115	 -39,654	 6,400
3,976	 -51,602	 -0,112	 -39,643	 8,000
4,726	 -51,588	 -0,109	 -39,628	 9,600
5,407	 -51,573	 -0,106	 -39,615	 11,200
6,177	 -51,558	 -0,103	 -39,602	 12,800
6,880	 -51,536	 -0,100	 -39,593	 14,400
7,665	 -51,520	 -0,097	 -39,582	 16,000
8,316	 -51,511	 -0,093	 -39,564	 17,600
9,050	 -51,496	 -0,090	 -39,554	 19,200
9,830	 -51,484	 -0,087	 -39,542	 20,800
10,580	 -51,463	 -0,083	 -39,532	 22,400
11,382	 -51,447	 -0,079	 -39,517	 24,000
12,137	 -51,433	 -0,076	 -39,501	 25,600
12,965	 -51,418	 -0,072	 -39,492	 27,200
13,765	 -51,401	 -0,068	 -39,480	 28,800
14,576	 -51,386	 -0,065	 -39,468	 30,400
15,424	 -51,370	 -0,060	 -39,454	 32,000
16,210	 -51,353	 -0,056	 -39,442	 33,600
17,054	 -51,337	 -0,052	 -39,432	 35,200
17,842	 -51,325	 -0,048	 -39,420	 36,800
18,689	 -51,309	 -0,043	 -39,410	 38,400
19,570	 -51,293	 -0,038	 -39,393	 40,000
20,363	 -51,278	 -0,033	 -39,383	 41,600
21,202	 -51,264	 -0,028	 -39,372	 43,200
22,089	 -51,246	 -0,022	 -39,358	 44,800
22,897	 -51,228	 -0,014	 -39,346	 46,400
23,693	 -51,216	 -0,007	 -39,332	 48,000
24,492	 -51,201	 -0,001	 -39,318	 49,600
25,307	 -51,188	 0,007	 -39,310	 51,200
26,131	 -51,171	 0,013	 -39,297	 52,800
26,886	 -51,155	 0,018	 -39,281	 54,400
27,734	 -51,140	 0,022	 -39,270	 56,000
28,518	 -51,124	 0,026	 -39,260	 57,600
29,359	 -51,114	 0,030	 -39,248	 59,200
30,175	 -51,094	 0,033	 -39,238	 60,800
30,910	 -51,079	 0,037	 -39,222	 62,400
31,707	 -51,065	 0,041	 -39,212	 64,000
32,512	 -51,046	 0,045	 -39,201	 65,600
33,320	 -51,036	 0,049	 -39,190	 67,200
34,120	 -51,021	 0,053	 -39,173	 68,800
34,902	 -51,004	 0,057	 -39,163	 70,400
35,678	 -50,992	 0,061	 -39,150	 72,000
36,497	 -50,975	 0,065	 -39,138	 73,600
37,265	 -50,961	 0,069	 -39,126	 75,200
38,056	 -50,941	 0,074	 -39,107	 76,800
38,821	 -50,931	 0,078	 -39,100	 78,400
39,576	 -50,916	 0,082	 -39,085	 80,000
40,451	 -50,893	 0,087	 -39,078	 81,600
41,186	 -50,881	 0,092	 -39,062	 83,200
41,921	 -50,866	 0,096	 -39,047	 84,800
42,588	 -50,849	 0,101	 -39,038	 86,400
43,330	 -50,838	 0,107	 -39,028	 88,000
44,004	 -50,820	 0,112	 -39,018	 89,600
44,570	 -50,807	 0,118	 -39,002	 91,200
45,111	 -50,792	 0,125	 -38,992	 92,800
45,582	 -50,774	 0,134	 -38,978	 94,400
45,911	 -50,759	 0,143	 -38,966	 96,000
46,161	 -50,745	 0,153	 -38,955	 97,600
46,393	 -50,727	 0,164	 -38,940	 99,200
46,542	 -50,713	 0,176	 -38,929	 100,800
46,677	 -50,695	 0,188	 -38,918	 102,400
46,768	 -50,683	 0,200	 -38,907	 104,000
46,871	 -50,665	 0,214	 -38,892	 105,600
46,939	 -50,647	 0,228	 -38,880	 107,200
46,999	 -50,633	 0,241	 -38,870	 108,800
47,041	 -50,619	 0,256	 -38,856	 110,400
47,097	 -50,605	 0,270	 -38,843	 112,000
47,126	 -50,586	 0,285	 -38,830	 113,600
47,171	 -50,572	 0,299	 -38,819	 115,200
47,195	 -50,552	 0,313	 -38,806	 116,800
47,215	 -50,535	 0,328	 -38,796	 118,400
47,248	 -50,519	 0,343	 -38,780	 120,000
47,281	 -50,506	 0,358	 -38,773	 121,600
47,283	 -50,486	 0,373	 -38,759	 123,200
47,317	 -50,471	 0,386	 -38,747	 124,800
47,356	 -50,456	 0,402	 -38,736	 126,400
47,364	 -50,440	 0,416	 -38,720	 128,000
47,389	 -50,423	 0,431	 -38,707	 129,600
47,399	 -50,410	 0,447	 -38,695	 131,200
47,443	 -50,391	 0,461	 -38,685	 132,800
47,443	 -50,376	 0,475	 -38,665	 134,400
47,472	 -50,362	 0,489	 -38,657	 136,000
47,500	 -50,345	 0,503	 -38,643	 137,600
47,533	 -50,331	 0,518	 -38,635	 139,200
47,570	 -50,313	 0,533	 -38,618	 140,800
47,583	 -50,295	 0,548	 -38,607	 142,400
47,611	 -50,280	 0,563	 -38,593	 144,000
47,634	 -50,267	 0,577	 -38,584	 145,600
47,668	 -50,251	 0,592	 -38,570	 147,200
47,681	 -50,236	 0,607	 -38,558	 148,800
47,706	 -50,214	 0,622	 -38,545	 150,400
47,726	 -50,204	 0,637	 -38,534	 152,000
47,760	 -50,183	 0,652	 -38,522	 153,600
47,765	 -50,171	 0,666	 -38,513	 155,200
47,837	 -50,151	 0,681	 -38,498	 156,800
47,844	 -50,137	 0,744	 -38,485	 158,400
47,873	 -50,122	 0,759	 -38,472	 160,000
47,864	 -50,105	 0,773	 -38,460	 161,600
47,897	 -50,092	 0,786	 -38,450	 163,200
47,940	 -50,074	 0,799	 -38,431	 164,800
47,999	 -50,056	 -0,013	 -38,424	 166,400
47,987	 -50,040	 -0,014	 -38,412	 168,000
48,001	 -50,026	 -0,014	 -38,400	 169,600
48,012	 -50,010	 -0,013	 -38,385	 171,200
48,054	 -49,996	 -0,014	 -38,373	 172,800
48,091	 -49,978	 -0,024	 -38,360	 174,400
48,093	 -49,964	 -0,026	 -38,352	 176,000
48,120	 -49,951	 -0,025	 -38,339	 177,600
48,164	 -49,929	 -0,025	 -38,324	 179,200
48,186	 -49,919	 -0,026	 -38,311	 180,800
48,199	 -49,899	 -0,025	 -38,302	 182,400
48,230	 -49,885	 -0,025	 -38,291	 184,000
48,264	 -49,870	 -0,025	 -38,276	 185,600
48,278	 -49,851	 -0,025	 -38,267	 187,200
48,287	 -49,835	 -0,025	 -38,252	 188,800
48,310	 -49,819	 -0,025	 -38,238	 190,400
48,339	 -49,806	 -0,025	 -38,230	 192,000
48,359	 -49,789	 -0,025	 -38,214	 193,600
48,377	 -49,772	 -0,025	 -38,203	 195,200
48,407	 -49,753	 -0,025	 -38,191	 196,800
48,468	 -49,739	 -0,025	 -38,179	 198,400
48,468	 -49,724	 -0,025	 -38,167	 200,000
48,457	 -49,708	 -0,025	 -38,153	 201,600
48,470	 -49,693	 -0,025	 -38,140	 203,200
48,490	 -49,673	 -0,025	 -38,128	 204,800
48,523	 -49,658	 -0,025	 -38,116	 206,400
48,578	 -49,642	 -0,025	 -38,100	 208,000
48,587	 -49,627	 -0,025	 -38,091	 209,600
48,595	 -49,612	 -0,025	 -38,082	 211,200
48,603	 -49,597	 -0,025	 -38,071	 212,800
48,636	 -49,581	 -0,025	 -38,059	 214,400
48,641	 -49,563	 -0,025	 -38,041	 216,000
48,671	 -49,549	 -0,025	 -38,029	 217,600
48,690	 -49,533	 -0,025	 -38,019	 219,200
48,697	 -49,518	 -0,025	 -38,007	 220,800
48,747	 -49,500	 -0,025	 -37,992	 222,400
48,767	 -49,484	 -0,025	 -37,982	 224,000
48,766	 -49,467	 -0,025	 -37,969	 225,600
48,786	 -49,453	 -0,025	 -37,960	 227,200
48,808	 -49,435	 -0,025	 -37,948	 228,800
48,843	 -49,419	 -0,025	 -37,933	 230,400
48,842	 -49,403	 -0,025	 -37,920	 232,000
48,848	 -49,389	 -0,025	 -37,909	 233,600
48,873	 -49,370	 -0,025	 -37,897	 235,200
48,896	 -49,356	 -0,025	 -37,879	 236,800
48,916	 -49,342	 -0,025	 -37,873	 238,400
48,933	 -49,324	 -0,025	 -37,859	 240,000
48,933	 -49,307	 -0,025	 -37,849	 241,600
48,966	 -49,292	 -0,025	 -37,834	 243,200
48,980	 -49,278	 -0,025	 -37,820	 244,800
49,023	 -49,261	 -0,025	 -37,812	 246,400
49,020	 -49,243	 -0,025	 -37,798	 248,000
49,025	 -49,226	 -0,025	 -37,788	 249,600
49,041	 -49,209	 -0,025	 -37,777	 251,200
49,055	 -49,195	 -0,025	 -37,762	 252,800
49,077	 -49,180	 -0,025	 -37,749	 254,400
49,098	 -49,162	 -0,024	 -37,740	 256,000
49,108	 -49,146	 -0,025	 -37,727	 257,600
49,126	 -49,131	 -0,025	 -37,710	 259,200
49,135	 -49,117	 -0,025	 -37,696	 260,800
49,163	 -49,102	 -0,025	 -37,684	 262,400
49,187	 -49,083	 -0,025	 -37,674	 264,000
49,192	 -49,073	 -0,025	 -37,661	 265,600
49,203	 -49,051	 -0,025	 -37,644	 267,200
49,204	 -49,037	 -0,024	 -37,635	 268,800
49,228	 -49,020	 -0,025	 -37,624	 270,400
49,244	 -49,003	 -0,025	 -37,615	 272,000
49,264	 -48,988	 -0,025	 -37,596	 273,600
49,280	 -48,972	 -0,025	 -37,586	 275,200
49,287	 -48,956	 -0,025	 -37,572	 276,800
49,322	 -48,941	 -0,025	 -37,564	 278,400
49,321	 -48,924	 -0,025	 -37,552	 280,000
49,334	 -48,911	 -0,025	 -37,537	 281,600
49,347	 -48,891	 -0,025	 -37,524	 283,200
49,352	 -48,877	 -0,025	 -37,515	 284,800
49,361	 -48,860	 -0,025	 -37,503	 286,400
49,380	 -48,840	 -0,025	 -37,487	 288,000
49,396	 -48,827	 -0,025	 -37,476	 289,600
49,404	 -48,812	 -0,025	 -37,464	 291,200
49,417	 -48,798	 -0,025	 -37,454	 292,800
49,447	 -48,779	 -0,025	 -37,443	 294,400
49,477	 -48,763	 -0,025	 -37,427	 296,000
49,489	 -48,747	 -0,025	 -37,414	 297,600
49,478	 -48,730	 -0,025	 -37,399	 299,200
49,487	 -48,712	 -0,025	 -37,389	 300,800
49,487	 -48,700	 -0,026	 -37,381	 302,400
49,478	 -48,682	 -0,025	 -37,363	 304,000
49,492	 -48,669	 -0,025	 -37,351	 305,600
49,531	 -48,650	 -0,025	 -37,340	 307,200
49,546	 -48,636	 -0,025	 -37,331	 308,800
49,573	 -48,620	 -0,025	 -37,317	 310,400
49,584	 -48,604	 -0,025	 -37,305	 312,000
49,594	 -48,588	 -0,025	 -37,296	 313,600
49,575	 -48,569	 -0,025	 -37,281	 315,200
49,581	 -48,557	 -0,025	 -37,272	 316,800
49,627	 -48,541	 -0,025	 -37,258	 318,400
49,635	 -48,527	 -0,025	 -37,243	 320,000
49,643	 -48,509	 -0,025	 -37,231	 321,600
49,611	 -48,494	 -0,025	 -37,222	 323,200
49,684	 -48,481	 -0,025	 -37,205	 324,800
49,697	 -48,461	 -0,025	 -37,193	 326,400
49,678	 -48,445	 -0,025	 -37,183	 328,000
49,700	 -48,429	 -0,025	 -37,169	 329,600
49,699	 -48,411	 -0,025	 -37,160	 331,200
49,680	 -48,395	 -0,025	 -37,144	 332,800
49,717	 -48,378	 -0,025	 -37,134	 334,400
49,732	 -48,362	 -0,025	 -37,122	 336,000
49,740	 -48,347	 -0,025	 -37,111	 337,600
49,741	 -48,333	 -0,025	 -37,093	 339,200
49,781	 -48,314	 -0,025	 -37,083	 340,800
49,781	 -48,300	 -0,025	 -37,075	 342,400
49,782	 -48,284	 -0,025	 -37,064	 344,000
49,779	 -48,269	 -0,025	 -37,047	 345,600
49,801	 -48,251	 -0,025	 -37,032	 347,200
49,785	 -48,237	 -0,025	 -37,024	 348,800
49,800	 -48,221	 -0,025	 -37,013	 350,400
49,825	 -48,204	 -0,025	 -37,000	 352,000
49,874	 -48,189	 -0,025	 -36,987	 353,600
49,863	 -48,167	 -0,025	 -36,972	 355,200
49,818	 -48,152	 -0,026	 -36,965	 356,800
49,832	 -48,139	 -0,025	 -36,951	 358,400
49,865	 -48,124	 -0,025	 -36,937	 360,000
49,904	 -48,107	 -0,025	 -36,925	 361,600
49,895	 -48,089	 -0,025	 -36,913	 363,200
49,865	 -48,076	 -0,025	 -36,902	 364,800
49,901	 -48,063	 -0,025	 -36,890	 366,400
49,923	 -48,043	 -0,025	 -36,880	 368,000
49,921	 -48,031	 -0,025	 -36,863	 369,600
49,939	 -48,014	 -0,025	 -36,849	 371,200
49,923	 -47,999	 -0,025	 -36,840	 372,800
49,917	 -47,984	 -0,025	 -36,832	 374,400
49,949	 -47,966	 -0,025	 -36,816	 376,000
49,992	 -47,947	 -0,025	 -36,802	 377,600
49,706	 -47,947	 -0,025	 -36,840	 378,300